subject_id,trial,response,rt,responseConf,rtConf,correct,contrast
1,1,1,0.879277731126422,3.1,7.40056946306504,1,16
1,2,2,0.954786849994889,6,3.32558765015892,1,16
1,3,2,1.07814051591868,6,2.47730291725748,1,16
1,4,1,1.00845845301228,6,2.92514411090633,1,15
1,5,1,0.713980143730623,6,2.66551419004008,1,14
1,6,1,0.848804852994363,6,2.57182379426285,1,13
1,7,2,0.799770531227296,6,1.74742215478909,1,12
1,8,2,0.734853384305097,6,1.62965704239105,1,11
1,9,2,1.30664809290374,4.8,1.74735542885628,1,10
1,10,2,0.66618589776499,6,1.6295899742745,1,9
1,11,2,1.10606548996384,5,1.9593834113175,1,8
1,12,2,1.04729602566658,4.6,1.27629942766271,1,7
1,13,1,1.38645162438297,4.3,2.10068635321204,1,6
1,14,2,1.6395105806796,3.5,2.05359563810816,1,5
1,15,1,1.02390567758994,3.5,0.875862047726514,0,4
1,16,1,2.54320863454086,3.9,1.88869087825697,0,6
1,17,1,0.993996376952964,3.5,0.958312032362301,1,8
1,18,1,0.869040604270594,3.5,0.546104882216241,1,8
1,19,2,1.36310199623495,4.5,1.01717730825476,1,7
1,20,2,1.32271432882953,3.5,1.9593704083145,1,6
1,21,1,2.39886127918089,2.8,3.20777257885857,0,5
1,22,1,1.04509201677229,3.5,0.828744984433797,1,7
1,23,1,1.16368316200169,4.3,1.46473483114187,1,7
1,24,1,0.984005280588462,4,1.41763658798482,1,6
1,25,1,0.920367902841463,5,3.30203236926354,1,5
1,1,1,1.50327367692717,6,6.13992085962218,1,6
1,2,1,0.771125601474523,4.9,1.84164943768883,1,6
1,3,1,0.919181207787005,3.5,1.04076099044596,1,6
1,4,2,1.17904141866893,6,2.61891450936582,1,5
1,5,2,0.677647702129434,6,1.44106218104116,1,4
1,6,1,0.741534190025959,6,1.41766225180527,0,3
1,7,2,1.257110760258,3.5,0.451862543209245,0,5
1,8,1,1.47602930739868,3.5,0.993605260330696,1,7
1,9,2,1.35389073782426,4.2,1.29984067900295,1,7
1,10,1,1.04653603439874,3.5,0.711015801385656,1,6
1,11,1,1.21544674552024,4.2,1.46472114377138,1,5
1,12,2,0.833581759115077,4.7,1.74742420789516,1,4
1,13,1,1.52442032273484,4.3,1.18204545438948,1,3
1,14,2,0.991390985907856,2.6,3.79667342138418,1,2
1,15,2,1.76535979649634,2.6,0.922994509311138,0,1
1,16,1,1.39935128705838,3,2.38336751754196,0,3
1,17,2,0.833832238001378,4,1.18208925397721,0,5
1,18,2,0.670671591383325,4.1,0.969979831658748,1,7
1,19,2,1.13013473163483,4.2,1.72382991799259,1,7
1,20,2,1.03854397854957,4.1,0.875866838306138,1,6
1,21,2,1.18973193968486,4,0.899404325619798,0,5
1,22,1,1.04743700558629,3.5,1.27630113858413,0,7
1,23,2,1.21513227817377,3.5,0.428307946682253,1,9
1,24,2,1.52955787739029,3.9,0.828730954878665,0,9
1,25,2,1.05309741780911,3.5,0.404767379710393,1,11
1,1,1,1.44712568633622,2.9,1.93578398864975,1,11
1,2,2,0.678149344272242,4.2,1.34686158851491,1,11
1,3,2,1.08063367052182,4.7,1.32338466781766,1,11
1,4,1,0.933311022919042,4.9,3.11357403943748,1,10
1,5,2,1.0001830685851,6,1.7709500609426,1,9
1,6,2,1.13214130020424,6,1.62962453488581,1,8
1,7,2,0.947070936852469,6,1.48829250732797,0,7
1,8,1,0.655890599582563,6,3.49039933588847,1,9
1,9,2,0.770191096227791,4.8,1.39410491780382,1,9
1,10,2,0.714922861399828,4.5,1.34698682795897,0,8
1,11,2,0.572463678849999,4.9,1.29980303873253,1,10
1,12,2,0.505797285931294,4.4,1.01716190996376,1,10
1,13,1,0.853510913282662,4.8,1.77096203739256,1,9
1,14,2,0.650044381300177,6,1.2529929147322,1,8
1,15,1,1.05883174183418,6,1.37050481076949,1,7
1,16,2,0.663263986268248,5.3,1.27617042419206,0,6
1,17,1,0.667591932937285,5.1,0.875737150467103,1,8
1,18,2,0.641249218963821,3.5,1.27626418268301,0,8
1,19,2,1.43856765770124,4.8,0.923044468215267,0,10
1,20,2,0.707442713220189,6,1.20567704237783,1,12
1,21,1,1.10982404200422,6,1.27630421824233,1,12
1,22,2,0.689201211879663,6,1.84144823333645,1,11
1,23,2,1.00848959178165,3.5,0.970062298068115,0,10
1,24,2,0.624741565328804,3.5,0.522511276682962,1,12
1,25,2,0.991015267577495,6,1.67673954507336,1,12
1,1,1,0.827303704281803,6,2.45403815080863,1,12
1,2,1,0.744711370988625,4.5,0.946525495123751,1,12
1,3,2,0.747481352667819,5.7,1.65318597509849,1,12
1,4,1,0.727814311651855,5.9,1.13499922324172,1,11
1,5,1,0.738307392343813,3.5,0.640341404091487,1,10
1,6,2,0.899282508019496,4.9,1.44118673611592,1,9
1,7,2,1.78203375168778,3.5,0.663849805741847,0,8
1,8,2,1.38037032550619,6,1.58252800265018,1,10
1,9,1,1.20297652410591,5.3,1.29983588842242,1,10
1,10,1,0.585288060985476,5.2,1.11136181812162,1,9
1,11,1,0.654931114883766,5.6,1.81793196144827,1,8
1,12,1,0.601856965606203,5.2,1.08782227770189,1,7
1,13,1,0.626809727066757,3.5,0.028161081192593,1,6
1,14,1,0.855901070421169,5.1,1.22922411085074,1,5
1,15,2,0.494416237054793,2.6,1.15843473964196,0,4
1,16,1,0.677188148652931,5.2,1.15841865698167,1,6
1,17,2,0.563508716459182,2.7,0.970056138751715,1,6
1,18,1,0.726367898735589,4.3,1.3469816951947,0,5
1,19,1,1.0334170316064,4.9,1.20561887105214,1,7
1,20,2,0.614473299702695,3.5,0.593165827288431,1,7
1,21,2,2.6300112031131,4.4,2.64245404978465,1,6
1,22,1,0.784949161682562,4.6,1.44120213440874,0,5
1,23,2,1.02225840250594,6,2.73671349800588,1,7
1,24,1,1.53630027627878,5.7,3.41978482084323,1,7
1,25,2,2.61663385119573,5.5,2.43047294656935,1,6
1,1,1,1.46469103155505,5.4,2.7602345604746,0,6.5
1,2,2,1.36307633241449,4.8,2.6895728239997,1,6.5
1,3,1,0.958549508247415,4.8,1.44118126116791,1,6.5
1,4,1,1.04235693788814,3.5,0.404768406263429,1,5.5
1,5,2,1.6208334787616,4.8,1.11138987723098,1,4.5
1,6,1,0.907774837273791,3.5,1.04075619986634,1,3.5
1,7,1,2.17609452772103,3.5,0.498935464730494,0,2.5
1,8,2,1.24570131008659,6,1.88872543886919,1,4.5
1,9,1,0.706885295041502,5.2,2.54829691466148,1,4.5
1,10,2,1.02430226916022,4.5,1.15854286987178,1,3.5
1,11,2,1.39286621074007,3,1.62961837556941,0,2.5
1,12,1,0.88547879449834,5.1,0.875855888410115,1,4.5
1,13,1,1.23402769365748,3.5,1.46469992834591,1,4.5
1,14,1,2.15562848643003,3.5,1.04076270136648,0,3.5
1,15,1,1.17018808500688,3.5,0.381203886391631,0,5.5
1,16,1,1.08282946699364,3.5,0.0102843482864046,0,7.5
1,17,1,1.58232987795691,3.5,0.49896283947237,1,9.5
1,18,2,0.584614984522887,3.5,0.616731031527706,1,9.5
1,19,2,1.15680970653557,3.5,0.286994397074523,0,8.5
1,20,2,1.0516222614142,3.5,0.334122410263262,0,10.5
1,21,1,1.52857033358214,4.4,1.60604872293425,1,12.5
1,22,2,1.04286987211162,4.6,1.11140322241772,1,12.5
1,23,1,1.03895494185963,3.5,0.286994397074523,1,11.5
1,24,1,1.05833796993011,4.5,1.46474064827453,1,10.5
1,25,1,1.00843073608667,4.2,0.781645030354412,1,9.5
1,1,2,0.57511492258709,4.2,2.14772676722805,1,11
1,2,1,0.568264051284132,3.5,0.946495382907415,0,11
1,3,2,0.602776072560118,5.2,1.62956157297958,1,11
1,4,1,0.770269114243092,4.1,2.03011769085788,1,11
1,5,1,1.00192957710806,4.1,0.899407063094259,1,10
1,6,1,0.93710858396571,4.1,0.875842543223371,1,9
1,7,1,0.730519620503401,4.2,1.22922308429861,1,8
1,8,2,0.707393096500709,4,0.899532986905797,1,7
1,9,2,1.10773466484079,4,0.946525152939103,1,6
1,10,2,0.697237409501213,4.3,0.946406757181649,1,5
1,11,2,0.744026318076976,4.2,0.805239662441636,1,4
1,12,2,0.823338472941032,4.4,0.875883947520379,1,3
1,13,1,0.719314796527215,4.2,0.781678564413596,0,2
1,14,2,0.602569735444376,4.2,0.875843227591758,0,4
1,15,1,0.711776477020976,4.1,0.734559790200365,1,6
1,16,2,1.93711542765141,4.7,1.39404879958329,0,6
1,17,2,0.935833947553874,4.1,1.01718654723118,1,8
1,18,2,0.895546540140458,3.5,0.970105413286547,1,8
1,19,1,1.06192063925482,4.3,0.875858625883666,0,7
1,20,2,0.80162516998007,4.2,1.0172197391048,0,9
1,21,1,0.863261454105668,2.9,1.39406009166487,1,11
1,22,1,1.43281143388231,4.7,1.37049454524004,1,11
1,23,2,1.09648227725029,4.9,1.29983451968565,1,10
1,24,2,0.901162810591813,4.7,1.32342436119325,1,9
1,25,1,0.806242946726343,4.3,0.993640505310395,1,8
1,1,1,0.594189300445578,3.5,1.2526781052029,0,9.5
1,2,2,0.974577761717228,4.7,0.922951736277355,1,9.5
1,3,1,0.901106692371286,4.6,0.922962001805899,1,9.5
1,4,2,0.570511517580599,2.7,1.22915806928722,0,8.5
1,5,2,1.41024369679508,4.3,0.781597466741005,1,10.5
1,6,2,0.879165494685367,3.5,0.828765515489977,1,10.5
1,7,2,1.47357071340684,3.5,0.145663396069722,0,9.5
1,8,1,1.15896820492162,4.2,1.88871722644672,1,11.5
1,9,2,0.884271910572352,6,1.15853363089718,1,11.5
1,10,1,1.14957969505849,6,1.46470506111109,1,10.5
1,11,1,1.46605087185162,6,1.15850796707582,1,9.5
1,12,1,1.55419719805832,6,1.11136250249001,1,8.5
1,13,1,1.32337713976449,6,1.32339732863602,1,7.5
1,14,2,1.06480491048114,6,1.98293321726396,1,6.5
1,15,2,0.752744146766418,6,1.27632646021993,0,5.5
1,16,2,0.738944881642055,6,1.20565274729415,1,7.5
1,17,2,1.21081870324542,6,1.18206838073638,0,7.5
1,18,2,0.78220176416562,6,1.20564487705724,1,9.5
1,19,2,0.650807452226218,6,1.15840804926847,1,9.5
1,20,2,0.937290968183333,6,1.24049155455032,1,8.5
1,21,1,1.10900724814746,6,1.0407223236225,1,7.5
1,22,1,0.937003533395,3.5,0.475465045534293,0,6.5
1,23,1,0.910634471232697,6,1.01721597507822,1,8.5
1,24,2,1.0498463250442,3.5,0.451862543209245,1,8.5
1,25,2,1.60135737656856,3.5,0.59319799260993,0,7.5
1,1,2,2.34958126910624,3.5,1.27626555141978,0,8.5
1,2,1,2.43311255604112,4.1,1.4287808453455,0,8.5
1,3,1,1.11685592878712,3.5,0.498987476739785,1,8.5
1,4,1,1.63839711305991,3.5,0.734508120374812,1,8.5
1,5,2,1.95353069153316,3.5,0.216296046882235,0,7.5
1,6,1,1.24217989174667,4.7,1.51183923361623,1,9.5
1,7,1,1.15656538696567,4.5,0.899402956883023,1,9.5
1,8,1,1.49071106576048,3.5,0.169177957036482,1,8.5
1,9,1,1.43271493791781,4.5,1.06427555141272,1,7.5
1,10,1,0.826639182425424,4.6,0.828771674807285,1,6.5
1,11,1,0.933646021320783,4.9,1.81807978505367,1,5.5
1,12,2,0.972019249918958,4.3,2.05362780343057,1,4.5
1,13,1,0.808295367988649,4.7,1.04077091378986,0,3.5
1,14,2,1.84252200758147,2.7,1.11138885067794,0,5.5
1,15,2,1.18558877252326,5,0.828736087642937,1,7.5
1,16,1,0.799144676194373,4.4,1.34699367164467,1,7.5
1,17,2,1.03823019557149,4.7,1.08787257878976,1,6.5
1,18,1,0.969895312143308,4.6,0.734534468563652,1,5.5
1,19,1,1.14168071333097,4.4,0.875837752642838,1,4.5
1,20,1,2.09864043345169,4.6,0.922957211225366,1,3.5
1,21,2,1.12710058369794,4.5,1.37049659834611,0,2.5
1,22,1,1.0641903475298,3.5,0.263443564574118,0,4.5
1,23,1,1.00517827458316,4.5,0.734537206038112,0,6.5
1,24,1,1.54457771381203,4.3,0.593170275684315,1,8.5
1,25,1,2.16433673396114,4.2,0.569635183660466,1,8.5
2,1,2,1.14353643426148,5.2,3.31537007767292,1,19
2,2,2,0.618446721207874,6,1.52596366035505,1,19
2,3,2,0.584985215782581,6,1.65947707564919,1,19
2,4,2,0.930290212783802,4.1,1.39248138413495,1,18
2,5,2,0.852073982343427,4.4,1.31233726837672,1,17
2,6,1,0.789234296922587,4.3,1.31235369338538,1,16
2,7,2,1.05474147208588,3.7,2.75453509870204,1,15
2,8,1,1.25383515382964,3.9,1.33901592986149,0,14
2,9,1,0.651871270367337,4,1.33857656089822,1,16
2,10,1,0.677568537623301,5.9,1.3123687496427,1,16
2,11,2,2.02335841454988,3.5,0.751459858136514,1,15
2,12,2,0.680142815444924,4.4,0.991910341355833,1,14
2,13,2,1.66149153444712,3.5,0.885009203137088,1,13
2,14,1,0.648472320268411,4,1.0719261367376,1,12
2,15,1,0.527894967548491,3.5,0.751441037815312,1,11
2,16,1,0.663913880945984,5.5,1.12490671108571,1,10
2,17,2,1.797272969603,3.5,0.964851851560525,1,9
2,18,2,1.23184480557393,4.4,0.858288452567649,1,8
2,19,2,1.33812555755321,3.6,2.86135787594503,1,7
2,20,2,1.21100215475599,3.9,1.3390073751707,1,6
2,21,1,0.606162526139087,3.8,1.20547274423916,1,5
2,22,2,2.11762872159125,3.6,2.04648448367152,0,4
2,23,1,1.1932429570079,3.8,1.04526390026149,0,6
2,24,2,1.05314208692653,3.5,0.965139289199215,1,8
2,25,1,0.858268605683406,4.8,1.49928807855758,1,8
2,1,2,1.64984038656257,3.5,4.19636884134889,1,8
2,2,1,0.682647971356346,4.1,1.15202405716082,0,8
2,3,1,0.767240184602997,3.9,1.01866667944159,0,8
2,4,1,1.14577399941845,3.5,2.03352412577078,1,10
2,5,1,1.4653714635333,3.5,0.350949724761449,0,10
2,6,2,0.966513514871622,4.1,1.04537271593836,1,12
2,7,2,1.03195998594128,4.4,1.36580169608715,1,12
2,8,1,0.804278577717923,6,1.57952082092197,1,11
2,9,2,1.08536145112157,6,1.33910660959555,1,10
2,10,2,1.6092637729671,3.9,1.0186146669148,1,9
2,11,1,0.921477169409627,5,1.44594478528234,1,8
2,12,2,0.912808529232279,6,1.01864341068176,1,7
2,13,2,0.759402718271303,6,1.1254877457468,1,6
2,14,1,0.78598522502034,6,1.36584515392133,1,5
2,15,1,1.26152103102504,4.3,1.25899089541235,0,4
2,16,2,0.750976004774202,6,1.12548295511988,1,6
2,17,2,1.06972484347534,4.8,0.804968085867586,0,6
2,18,2,0.602516174356424,4.4,0.644704834050572,1,8
2,19,1,0.573379236668188,5.2,1.2322567995252,1,8
2,20,2,0.708547471524071,4.8,0.885137865700017,0,7
2,21,1,0.791320272943267,4.4,0.911825081877396,1,9
2,22,2,0.63547089984786,5.5,0.938490740230918,1,9
2,23,1,0.66227993483335,5.7,1.76632722790782,1,8
2,24,2,0.924988699252935,3.5,0.350977441963551,1,7
2,25,1,1.97805345176675,3.5,0.537895059938819,1,6
2,1,1,0.770693542543086,6,1.01865572943643,1,7.5
2,2,1,1.36151066273851,4.2,0.751547115989524,1,7.5
2,3,2,0.557931858802476,4.2,0.831720317699364,1,7.5
2,4,1,1.20277493666981,3.9,0.644735288753509,0,6.5
2,5,1,2.34361287898537,3.8,0.644715441869266,1,8.5
2,6,2,0.840380060997632,3.9,0.778277447812798,1,8.5
2,7,1,0.730823546480678,3.5,0.511202026571482,1,7.5
2,8,1,0.850529689399991,4.6,0.991924371050118,1,6.5
2,9,1,0.610108976507036,4.4,0.965184800159477,1,5.5
2,10,1,2.68152080518121,4.3,0.751549853492179,0,4.5
2,11,1,1.332325476591,3.7,0.644726391872609,1,6.5
2,12,1,0.560340175605234,5.4,1.36577637419941,1,6.5
2,13,1,1.13050661226407,4.1,0.64473973719214,1,5.5
2,14,1,0.788666949769322,4.8,1.31243171217284,1,4.5
2,15,1,0.73395251051079,4.4,0.724916018591102,1,3.5
2,16,2,1.04049756824315,4.3,1.15215306191203,0,2.5
2,17,1,0.748971469418393,5.1,0.991928477302281,1,4.5
2,18,2,0.622845885860443,4.5,3.5824995645653,1,4.5
2,19,2,0.968181679751069,3.5,0.751577228505994,0,3.5
2,20,1,0.709165462450983,4.3,0.885132390698345,1,5.5
2,21,2,0.873957568044716,4.5,0.885121440693183,0,5.5
2,22,2,0.593211065115611,4.3,0.537826280218724,1,7.5
2,23,1,0.532159652446353,4.2,0.671396156478295,1,7.5
2,24,2,0.738083057844051,4.9,1.81987891347126,1,6.5
2,25,1,0.687771889488431,4.2,0.617913935011529,0,5.5
2,1,2,0.986042165048275,4.3,1.17865960300151,1,6.5
2,2,2,1.10260394549186,3.7,0.671463225262414,1,6.5
2,3,1,0.734076382446801,3.8,0.644744527819057,1,6.5
2,4,2,0.915523788373321,4.1,0.858381527616075,0,5.5
2,5,2,0.771315297533874,4.4,0.804995803067868,1,7.5
2,6,2,0.581351524941056,4.3,0.698113142983857,1,7.5
2,7,2,0.80829791405813,4.3,0.724844501370171,1,6.5
2,8,1,0.826612482389464,3.5,0.564628129262928,1,5.5
2,9,1,0.864492999353388,4.9,0.831684730183042,1,4.5
2,10,2,0.909215216537632,4.5,0.96523578612323,1,3.5
2,11,2,0.833894920328021,4.5,0.751594337889401,1,2.5
2,12,1,0.726926371136869,4.3,0.724897882644655,0,1.5
2,13,2,0.849231087202497,4.6,0.778271630624658,1,3.5
2,14,1,0.630340137964595,5.9,1.55275182189325,1,3.5
2,15,1,0.618375203986943,5.1,1.01858421221368,1,2.5
2,16,2,0.697900986629975,4.3,2.62096248493799,0,1.5
2,17,1,1.34569919719434,3.4,1.17886252028802,0,3.5
2,18,1,0.840216153106667,3.5,0.431085285827066,1,5.5
2,19,1,0.708423941776346,4.7,0.858351757287892,1,5.5
2,20,1,1.48006945040834,3.5,0.297174932837152,0,4.5
2,21,2,0.773205200021039,5,0.724890354516901,1,6.5
2,22,1,0.521979569342875,4.9,0.67138657522446,0,6.5
2,23,1,0.660349996389414,4.3,1.81977625717082,1,8.5
2,24,2,0.616216684180472,4.5,0.938475683973593,1,8.5
2,25,1,0.634583949413354,4.5,0.724796937283827,0,7.5
2,1,1,0.562796056492516,4.3,0.831658381732268,1,8.5
2,2,1,0.672078136500204,3.7,0.724710363803752,1,8.5
2,3,2,0.663990873170405,5.2,0.991801867865433,1,8.5
2,4,2,0.904030046815024,4.8,0.698155574253178,1,7.5
2,5,2,0.815406862848249,4.5,0.751616580086193,0,6.5
2,6,1,0.519185949227904,4.6,0.5645685886102,1,8.5
2,7,1,0.644742474694795,4.6,0.885071823480757,1,8.5
2,8,2,0.572401606503263,4.6,0.698093638287901,0,7.5
2,9,2,0.428440175159267,4.7,0.858358258854423,1,9.5
2,10,1,0.838978460313228,4,1.20560311773988,1,9.5
2,11,1,0.92892899024082,3.9,0.831752483341916,1,8.5
2,12,1,1.23805003673442,3.5,0.484482644753371,1,7.5
2,13,2,0.527703684641892,5.4,1.44589448369516,1,6.5
2,14,1,1.67064779205066,3.5,0.350911741930759,1,5.5
2,15,2,1.35760801239303,4.6,1.12544428791261,1,4.5
2,16,2,0.611969450854303,5.1,0.991883650718592,1,3.5
2,17,2,0.544975607152082,5.7,1.04485327506154,1,2.5
2,18,2,0.741923772222435,3.5,0.61805252101658,1,1.5
2,19,1,1.38782147248276,4.2,0.911808656868743,0,0.5
2,20,2,0.636752392660128,3.5,0.431024718611297,0,2.5
2,21,1,0.770457090864511,4,0.751595364450623,1,4.5
2,22,1,0.639528561207044,5.1,0.885057451598186,1,4.5
2,23,2,1.28740034212024,3.5,0.297540389266942,1,3.5
2,24,2,0.537682219210183,3.2,1.81981458219161,0,2.5
2,25,2,1.56322276451465,5.4,1.55276071877051,1,4.5
2,1,1,0.88884683782635,4.9,1.36581538359314,1,4.5
2,2,2,0.906410646417498,5,0.831632717658067,1,4.5
2,3,2,0.516337579083483,4.8,0.671353383022506,1,4.5
2,4,1,0.8981389439341,3.5,0.270838116832238,0,3.5
2,5,1,0.834257981441624,3.9,0.724880773261248,0,5.5
2,6,1,0.631178839936183,5.1,0.751497498778917,1,7.5
2,7,2,0.498067495147552,3.5,0.537877266180658,0,7.5
2,8,1,0.746360235329121,3.8,0.591343747015344,1,9.5
2,9,1,0.599665751085922,5.6,1.01856949814464,1,9.5
2,10,1,1.40941351429137,3.5,0.618027199128846,0,8.5
2,11,2,1.27890211140038,5,1.01864067317911,1,10.5
2,12,2,0.479597573616047,5.5,0.965185826722518,1,10.5
2,13,1,0.540485420580808,6,0.831653248917064,1,9.5
2,14,1,0.468450468164519,6,0.80493626241514,1,8.5
2,15,1,0.609623412206929,6,0.778240149356861,1,7.5
2,16,2,0.847290540941685,6,1.28572156942391,1,6.5
2,17,1,0.750303948196233,4.4,0.965271715827839,0,5.5
2,18,1,0.714956646532301,3.5,0.377695455030334,0,7.5
2,19,2,0.526010882253104,4,2.14030241861656,1,9.5
2,20,1,0.678423322417075,5.1,1.87315479577592,1,9.5
2,21,2,0.623151459447399,5.4,0.618026172565806,1,8.5
2,22,1,0.940725910073525,5.2,1.15218864943017,1,7.5
2,23,2,0.489057693866926,4.7,0.564546346411589,1,6.5
2,24,1,0.489332812750945,4.6,0.617990242861197,1,5.5
2,25,1,0.518840339682356,4.5,0.537858788047743,0,4.5
2,1,1,0.783338403414746,4.7,1.0720435071089,0,5.5
2,2,1,0.60936061207758,3.5,0.163951692682531,0,5.5
2,3,1,1.49048222112651,3.5,2.83473088479695,0,5.5
2,4,2,0.907229159316557,5.4,0.99194524449922,1,7.5
2,5,1,0.687532015934266,5.3,0.751412294050169,1,7.5
2,6,1,0.799709687982613,4.6,0.43105791081507,1,6.5
2,7,2,0.75173087076837,4.8,0.591358118897915,1,5.5
2,8,2,0.765320511789469,3.4,2.14049746558703,0,4.5
2,9,2,0.597731022015068,5,0.591332112635428,1,6.5
2,10,1,1.14986964360651,5.1,0.67144132525209,0,6.5
2,11,1,0.850641584765981,5.1,0.698177816451789,1,8.5
2,12,2,0.754296251709093,4.9,0.724886248264738,1,8.5
2,13,1,0.86367003801206,3.8,0.671488889336615,0,7.5
2,14,2,0.877478336953573,3.8,0.377679030021682,1,9.5
2,15,2,0.631628816718148,6,0.75148483783596,1,9.5
2,16,2,0.482356632777737,6,0.804935578038567,1,8.5
2,17,1,0.561955301393027,6,0.858355179163482,1,7.5
2,18,1,0.532450854152557,6,1.04540385501787,1,6.5
2,19,1,0.801956492206955,4.8,0.805003673383908,1,5.5
2,20,1,0.547782572586584,5.2,0.564552505789834,1,4.5
2,21,2,0.793387770829213,4.4,0.751595022265974,1,3.5
2,22,1,0.53739409719492,4.1,0.698110405483021,1,2.5
2,23,1,1.356394272736,3.9,0.618030621004436,0,1.5
2,24,1,2.45942218874916,3.5,0.297526359570838,0,3.5
2,25,1,0.727006100863946,3.9,0.564642501145499,1,5.5
2,1,1,1.00735771922336,4,0.858372288546889,1,5.5
2,2,1,0.939386587544504,3.9,0.858406849501989,0,5.5
2,3,2,0.656573613292494,5.7,0.938452415211941,1,5.5
2,4,1,0.579024648804989,5.4,0.67138760178932,1,5.5
2,5,2,0.728275274921543,5.4,0.88511288600057,1,4.5
2,6,2,0.530521942269843,5.3,0.831650511416228,1,3.5
2,7,1,0.538457958651634,4.9,0.564577143300994,1,2.5
2,8,1,0.592077739562228,5.1,0.591306448561227,1,1.5
2,9,1,0.555113943360993,4.2,0.457722542603733,0,0.5
2,10,1,0.677982926888944,3.5,0.190617008849586,0,2.5
2,11,2,0.580159685297986,4.7,0.751528637856609,0,4.5
2,12,1,0.628181275969837,3.5,0.244077672494313,1,6.5
2,13,2,1.21864970693423,5.6,0.831675491117494,1,6.5
2,14,2,0.633239151880844,5.2,0.537790008325828,1,5.5
2,15,2,0.809444584932862,4.9,0.61805799602007,1,4.5
2,16,1,0.988709860102972,5,0.591332454823714,1,3.5
2,17,1,0.689291544920707,5.1,0.671321901756528,1,2.5
2,18,2,0.590644657611847,5.4,0.805005726509989,0,1.5
2,19,1,0.518458116057445,4.5,0.484448768176662,1,3.5
2,20,2,0.612108721234108,5.5,1.20551380675897,1,3.5
2,21,1,1.11822207500518,4.8,0.48449154163427,1,2.5
2,22,1,0.525886325942338,4.8,0.858359969792218,0,1.5
2,23,1,0.506954451057027,5,0.537827306781764,1,3.5
2,24,2,0.645771433009941,6,0.885157712586079,1,3.5
2,25,2,0.957743244958692,5.4,0.99190623510367,1,2.5
3,1,2,1.75726699224469,2.4,2.85303135239883,1,1
3,2,2,1.60602855469006,4.3,1.86674374964059,1,1
3,3,2,1.32825746853996,4.5,1.48226110665564,0,1
3,4,1,1.53457715460354,4.3,1.85002080487538,1,3
3,5,1,2.25937143271767,2.5,1.33180319409621,1,3
3,6,2,2.01638657647527,2.9,2.11748560767955,0,2
3,7,1,1.67733521033369,4.3,1.46549675744973,1,4
3,8,2,1.29392258122789,4.3,2.53542337920408,0,4
3,9,1,1.10586670097655,4.3,1.23148982066778,1,6
3,10,2,1.47610005776187,4.4,1.61593756073853,1,6
3,11,2,1.30237524603217,4.5,0.913852761710586,1,5
3,12,1,1.18998409522101,4.4,0.997441479445115,1,4
3,13,1,1.10256016304447,4.4,0.947333554157012,1,3
3,14,2,1.30209602270952,4.3,1.08105004393656,1,2
3,15,2,3.0382364857287,2.6,1.31506861502567,0,1
3,16,2,1.51441285084184,4.1,0.713234227303474,0,3
3,17,2,3.8737701855207,2.5,1.19805317014288,0,5
3,18,2,1.4868946397346,4.6,1.4655439790422,1,7
3,19,2,1.53557667828136,4.5,1.29837099198267,1,7
3,20,2,1.46038348038201,4.3,1.09775998565601,0,6
3,21,1,1.49351524367739,2.4,2.28464216983775,0,8
3,22,2,0.963131229485953,2.5,1.48226589725164,1,10
3,23,1,1.01750141664888,3.5,1.74970127210872,1,10
3,24,2,2.2575123392071,4.2,1.18132680352392,0,9
3,25,1,1.59608053950433,2.7,1.8500365454056,0,11
3,1,1,1.00458836459984,4.2,1.2142542821075,1,11
3,2,2,1.20562470743243,4.4,0.964048970843578,1,11
3,3,1,1.07099766218926,2.6,1.43212306904752,1,11
3,4,1,1.63576720713718,4.3,0.94731507614415,1,10
3,5,1,1.53151835893368,4.4,1.13120484863066,0,9
3,6,1,1.36863706169424,4.5,1.09777127777488,1,11
3,7,2,1.36587494080231,4.2,1.01366072723977,1,11
3,8,2,1.12044380083171,4.6,0.830318793647166,1,10
3,9,1,1.15566323751227,4.2,1.51569194002695,1,9
3,10,1,1.42467814037263,4.5,1.31505903383368,1,8
3,11,1,1.25887252634129,4.5,0.84701607450188,1,7
3,12,1,1.79170453518964,2.5,1.66613205894282,1,6
3,13,1,2.45015042472187,2.7,0.713273920817301,1,5
3,14,1,1.16269069994632,2.7,1.18135999551123,1,4
3,15,2,1.92488653130749,2.4,1.0810568876459,1,3
3,16,2,2.09925499385463,2.5,0.780140720340569,0,2
3,17,1,1.19886586056964,4.5,0.846496979187577,1,4
3,18,2,1.455408104046,2.6,1.49894777976442,0,4
3,19,1,1.65561567373516,4.2,0.713284870749703,1,6
3,20,1,0.92051066386739,4.4,0.947339029124123,1,6
3,21,2,1.35958215051323,2.6,1.09777367307288,1,5
3,22,1,1.38885235108864,4.4,0.964033230313362,0,4
3,23,2,1.36719509223985,4.4,1.29837646694796,1,6
3,24,2,1.28386780418259,2.4,1.34854838091451,1,6
3,25,1,1.10569526607105,4.2,1.29837133416731,1,5
3,1,1,1.84291019137709,4.5,1.33179463945999,1,5.5
3,2,2,1.09054432122866,4.4,1.09777401525935,1,5.5
3,3,1,3.06806034234978,2.5,1.29835764675045,0,5.5
3,4,1,1.39146322601482,2.4,1.04761099811367,1,7.5
3,5,1,1.29455083369976,2.5,1.29837407165178,1,7.5
3,6,1,1.19864925718502,4.3,1.66577687045537,1,6.5
3,7,1,1.69144659580161,2.6,1.18135109868854,0,5.5
3,8,2,1.17476847732905,2.7,1.03089695016934,1,7.5
3,9,2,1.0954533135864,4.4,1.18136102206699,1,7.5
3,10,1,1.42028995425608,4.3,1.11449045850168,0,6.5
3,11,2,1.61497944149778,4.3,0.930589393894479,1,8.5
3,12,1,1.46545637956842,4.2,1.5825471052467,1,8.5
3,13,2,1.24555090487593,4.3,0.9139160660161,1,7.5
3,14,1,1.33658249817381,2.3,1.61598957292517,1,6.5
3,15,2,1.00092629599385,5.6,2.4685730045785,1,5.5
3,16,1,1.13153847943795,4.5,1.43211862063799,0,4.5
3,17,2,3.1567277764243,2.7,1.74970264084914,0,6.5
3,18,2,1.1854121555225,4.6,1.06433907566134,1,8.5
3,19,2,0.959062986757999,5.6,1.19809286365489,1,8.5
3,20,1,1.0728872102045,4.5,0.947339713495239,1,7.5
3,21,2,0.76232141341643,4.5,1.06437876917335,1,6.5
3,22,1,1.09879099039426,4.4,0.796162527136403,1,5.5
3,23,1,1.30505626897502,4.2,1.46552858069663,0,4.5
3,24,2,1.12928381955498,4.2,0.813597901993489,1,6.5
3,25,1,0.757627997887539,4.4,1.08106989069165,1,6.5
3,1,2,1.03862623494751,2,1.79987831885592,0,6.5
3,2,2,1.02779195946459,5.2,2.05065644855313,1,6.5
3,3,1,1.03888971773813,5.4,1.26494392264976,1,6.5
3,4,1,1.53082611778336,5.4,1.23150145497311,1,5.5
3,5,2,2.73961398744723,2.3,0.913845233630127,1,4.5
3,6,1,2.3017921620376,2.8,1.16433319007228,0,3.5
3,7,1,1.47226347457763,4.4,0.930593842305825,1,5.5
3,8,1,1.91312801294407,4,1.38194362700233,0,5.5
3,9,2,2.75504312905286,2.8,1.18133878001208,1,7.5
3,10,2,2.49744627004293,2.7,0.763431805178698,1,7.5
3,11,1,1.52438687212452,2.4,1.39863269540729,1,6.5
3,12,2,1.04725923147817,4.2,0.947327394818785,1,5.5
3,13,1,1.33708311547525,4.3,0.813585241130568,0,4.5
3,14,1,1.25108575440936,2.9,1.04762092149213,1,6.5
3,15,2,1.14346535303957,2.5,1.36522170879289,0,6.5
3,16,1,1.32348227068906,4.4,0.997458588717564,1,8.5
3,17,2,1.1194196398028,3,1.3485230591923,1,8.5
3,18,2,1.04395200917679,4.3,1.13124009373132,1,7.5
3,19,1,1.22224020596877,5.3,2.90317281186253,1,6.5
3,20,2,1.1563886706499,4.1,1.13121271889577,0,5.5
3,21,1,1.72175532919755,4.4,1.71642613311269,0,7.5
3,22,2,1.22905380250268,4.4,1.29837133416731,1,9.5
3,23,1,1.13633968338399,4.4,0.96403357249801,1,9.5
3,24,1,1.18938082228669,4.4,1.04761544652501,1,8.5
3,25,1,1.31534510086203,4.2,0.930590078265595,1,7.5
3,1,2,0.897698529150148,3.5,0.161605629908081,1,8.5
3,2,1,1.73199180671145,2.3,0.980756517265036,1,8.5
3,3,1,1.15155906531436,4.5,0.796857163582899,1,8.5
3,4,1,1.49105253504786,4.3,0.880459568736114,0,7.5
3,5,2,1.38913294315171,2.5,1.09776682936354,1,9.5
3,6,1,1.36165339899708,4.5,0.730018423264482,1,9.5
3,7,1,3.5511259269806,4.2,1.01416681951014,0,8.5
3,8,2,1.37808582832076,4.5,0.813571895900168,1,10.5
3,9,1,1.08392132198605,4.5,1.03088223619488,1,10.5
3,10,1,1.37616274613356,4.4,1.2147809055059,1,9.5
3,11,1,1.71230074541745,2.4,1.19807335908445,1,8.5
3,12,2,1.36264710552132,4.5,1.13119766273667,1,7.5
3,13,1,1.15883324345305,4.5,0.796877010339813,1,6.5
3,14,1,1.52296474942341,4.3,1.53239401147948,0,5.5
3,15,1,1.06285125335671,4.6,0.930583576740901,1,7.5
3,16,2,1.08871020725564,4.5,1.29838228410154,1,7.5
3,17,2,1.36135501329045,4.5,1.18133980656967,1,6.5
3,18,1,1.35578115461431,4.6,0.913876372505911,1,5.5
3,19,1,1.2809623075882,4.4,0.713285555120819,1,4.5
3,20,1,1.29913748737454,4.4,0.829904749260095,1,3.5
3,21,1,0.999256773218804,4.6,0.863744494237835,1,2.5
3,22,1,1.15041171752455,4.7,0.796862296365362,0,1.5
3,23,2,1.15269614753925,1,2.01712193299136,1,3.5
3,24,2,1.04779269858409,4.3,1.6326981459024,1,3.5
3,25,2,1.81190613716535,4.1,0.913870213167684,1,2.5
3,1,2,2.32514529193759,2.5,1.24820934357922,0,3
3,2,2,1.04243202144062,4.4,0.663139305061122,1,3
3,3,1,1.13692653141698,1.2,1.44882069209052,0,3
3,4,2,1.61687857070501,2.6,1.69875670341389,1,5
3,5,2,1.56256826599565,4.2,1.014180506927,1,5
3,6,2,1.53907963065831,4.5,0.746703385446381,0,4
3,7,1,1.22386011185336,4.3,1.18134836120589,0,6
3,8,2,1.47990721299539,2.5,1.13120792829977,1,8
3,9,1,1.41463910385755,4.4,0.830282179802452,1,8
3,10,1,1.91065948716096,2.6,0.830279442319807,1,7
3,11,1,1.39172020728256,4.3,1.7162776246314,0,6
3,12,1,1.15358001253844,4.6,0.746723232201475,1,8
3,13,1,1.18333919610996,4.5,0.763440359814922,1,8
3,14,1,1.13871479253976,4.6,0.763438306701573,1,7
3,15,1,1.32137954114296,4.5,0.763439333259157,1,6
3,16,1,1.33467652525724,4.5,0.730004393661147,1,5
3,17,1,1.20456051070505,4.5,0.696568427507373,0,4
3,18,1,1.2578045655755,4.5,0.997443532558464,1,6
3,19,1,2.42465589831954,2.6,0.729984546904234,0,6
3,20,2,2.07260559158385,2.5,0.897145215289129,1,8
3,21,1,1.40769376593016,4.7,0.964034256869127,1,8
3,22,1,1.46475216192812,4.6,0.93062121713956,0,7
3,23,1,1.11361514813871,4.8,0.947321577667026,1,9
3,24,1,1.40108787595818,4.5,0.847012652649937,1,9
3,25,2,1.31188286855468,4.3,0.663154361222041,1,8
3,1,1,0.95224494181457,4.3,0.512690289324382,1,8.5
3,2,1,0.935945622626605,4.7,0.746732129024167,1,8.5
3,3,1,1.06364957199366,4.6,0.763439675443806,1,8.5
3,4,1,1.24055123337348,4.6,0.746718783790129,0,7.5
3,5,1,1.19518599832008,4.5,0.746723574387943,1,9.5
3,6,1,1.04746009433438,4.5,0.629721816922029,1,9.5
3,7,1,1.3423859632785,4.6,0.629676306258261,0,8.5
3,8,1,1.44076667332774,4.5,0.462523165955645,1,10.5
3,9,1,0.926113608304149,4.6,0.830318793645347,1,10.5
3,10,1,1.64221808710136,4.4,0.763415380277365,1,9.5
3,11,1,1.57036804097334,1.8,1.69957863284617,0,8.5
3,12,1,1.27717773659242,4.2,0.730004393661147,1,10.5
3,13,1,1.56562671948086,4.4,0.696556793202035,0,10.5
3,14,1,1.23689977251524,4.5,0.696585536779821,1,12.5
3,15,2,1.06516134728008,4.5,0.662601731730319,1,12.5
3,16,2,1.0616905603365,4.4,0.679866698239493,1,11.5
3,17,1,1.13154806062994,4.4,0.646383852679719,1,10.5
3,18,2,1.20650651931646,4.3,1.0476291339437,1,9.5
3,19,1,1.18840080317932,4.4,0.646426283674373,1,8.5
3,20,2,1.30913854130449,2.5,1.23151480020533,1,7.5
3,21,2,1.37571516757453,4.4,0.863739703640022,1,6.5
3,22,2,1.35062989496328,2.3,1.48226281758252,0,5.5
3,23,1,1.19584778496574,4.2,0.679854721749507,1,7.5
3,24,1,1.29964084216044,4.6,0.796857505769367,0,7.5
3,25,2,1.03225166233642,4.4,1.04763187142635,1,9.5
3,1,1,0.896705506997023,4.1,0.646421150891911,1,9.5
3,2,1,1.27793533516342,4.4,1.06434112877287,1,9.5
3,3,2,0.929243578548267,4.4,0.629718052881799,1,9.5
3,4,1,1.17344353529552,4.3,0.796874615041816,1,8.5
3,5,1,1.11232784650383,4.3,0.646436891423946,1,7.5
3,6,1,1.80464975266841,4.3,0.679831110952364,1,6.5
3,7,1,1.5289249354646,4.3,0.56281600825605,1,5.5
3,8,2,1.30306132784244,4.4,1.51569707280942,0,4.5
3,9,2,1.52460963484737,2.5,0.980751042296106,1,6.5
3,10,1,1.24876128869801,4.5,0.897134607541375,1,6.5
3,11,1,1.16408305251389,4.7,0.913894850520592,1,5.5
3,12,2,1.5540567452972,2.7,1.23149084722354,1,4.5
3,13,1,1.61736652714535,4.1,0.913877056875208,1,3.5
3,14,1,1.18000836301326,4.3,0.629738241823361,1,2.5
3,15,1,1.20618383844521,4.5,0.64640985877304,1,1.5
3,16,1,1.34161193980799,2.4,0.863732859930678,0,0.5
3,17,2,1.05421688808383,4.4,0.847028050993686,1,2.5
3,18,2,0.948258481408629,2.7,1.03029915220031,0,2.5
3,19,2,1.12684095768236,4.5,0.646425599303257,1,4.5
3,20,2,1.1623892345724,4.4,0.696536604260473,1,4.5
3,21,1,0.914219242318723,4.1,2.48529286967641,1,3.5
3,22,1,1.13569979660497,4.4,0.663142042545587,1,2.5
3,23,1,1.26538979028192,4.3,0.880446907875012,0,1.5
3,24,1,1.04529166518478,4.4,1.69959882178773,1,3.5
3,25,1,0.871467961860617,4.4,0.663154361222041,1,3.5
4,1,2,0.659134203608119,4.5,1.65303744593984,1,1
4,2,1,0.827617145379918,3.5,0.52255923525081,0,1
4,3,1,1.08791246018154,4.5,0.922982110771045,0,1
4,4,2,0.737542743516315,3.5,0.381242572389965,1,3
4,5,1,0.836992745278621,3.5,0.569672317667937,1,3
4,6,2,0.802837625449683,5.1,1.72387576808251,1,2
4,7,1,1.33307828945908,3.5,0.73453594048442,0,1
4,8,1,0.867976811994595,5.5,1.27627445230428,1,3
4,9,2,0.891378000002078,4,0.781685294792624,0,3
4,10,1,1.30638970453037,3.5,1.04073025585603,1,5
4,11,2,0.668784580202555,5.1,0.805175793781018,1,5
4,12,2,0.817273838760229,5.1,0.828764842817691,1,4
4,13,2,0.599283185274544,3.5,0.262976697362319,0,3
4,14,2,1.11600161923161,4.8,0.73454381080046,1,5
4,15,2,0.831134150226717,4.7,0.82876381625465,0,5
4,16,2,0.71354135834008,3.5,0.663886848118636,0,7
4,17,2,0.609764051338061,4.9,0.805265789136683,1,9
4,18,2,0.593880726382849,3.5,0.0102988222242857,1,9
4,19,2,0.814564738997433,5,0.781669554160544,1,8
4,20,2,0.51194902224961,4.8,1.13492596598735,0,7
4,21,2,0.557536632044503,4.8,1.06425360486173,1,9
4,22,2,0.622919798395742,5,1.11108848870572,1,9
4,23,2,0.572186370460258,4.9,0.828715225607084,1,8
4,24,2,0.628497799561956,4.8,0.734526017042299,0,7
4,25,2,0.582691531848468,4.9,0.852247813678332,1,9
4,1,1,0.844948950732942,4.6,0.863651559880964,1,9
4,2,2,0.608023000486355,2.2,1.18197266399693,0,9
4,3,2,0.714835512098944,2.2,1.18208182186208,0,9
4,4,1,0.826220677510719,4.4,0.781670580721766,1,11
4,5,1,0.912134761714697,3.5,0.0102906097199593,1,11
4,6,2,0.659918155553896,4.5,0.710937994566848,1,10
4,7,2,0.689992345261999,4.2,0.66370309334161,1,9
4,8,2,0.558665166970968,4.8,0.475323991837286,1,8
4,9,1,0.632226276386064,4.5,0.758034309788854,1,7
4,10,2,0.586290661733074,4.1,0.640362814740001,0,6
4,11,2,0.651925678208499,4.5,0.64018077090077,1,8
4,12,1,0.492345775162903,4.6,0.899360553907172,1,8
4,13,1,1.23052635649219,4.3,0.805181953159263,0,7
4,14,2,1.18734637912348,3.5,0.758088033251624,1,9
4,15,2,0.987144351523966,4.3,0.628522779263221,1,9
4,16,2,0.536667974965894,4.1,0.781619936948118,1,8
4,17,2,0.65114549032478,3.5,0.0102837659669603,0,7
4,18,1,1.78043870512192,4.5,0.852305643393265,1,9
4,19,1,1.19722328395437,3.5,0.451881399123522,1,9
4,20,1,0.723891508714587,3.5,0.0102885565956967,1,8
4,21,1,1.16111221941901,4.4,1.04037882912235,1,7
4,22,2,0.637299550740863,3.9,0.52250003678455,1,6
4,23,2,1.40772960878166,4,0.640300878771086,1,5
4,24,2,0.593078980677092,3,1.53536595088917,0,4
4,25,2,0.602734147898445,4,0.758060316051342,1,6
4,1,1,0.87564284230757,4.2,0.828749786560365,0,6
4,2,2,0.59860941775878,4.4,1.62961572667155,1,6
4,3,2,1.274747953119,4.2,0.663850576225741,0,6
4,4,1,0.850604970686618,4.1,0.734559893619007,1,8
4,5,2,1.63559306084426,3.5,0.687375293982768,0,8
4,6,2,0.765826949536859,6,1.22922535898033,1,10
4,7,2,0.767268928368139,5.1,0.852356629355199,1,10
4,8,1,1.01276188905285,3.5,0.616760420385617,1,9
4,9,2,0.657720626355513,4.7,0.71097460864803,1,8
4,10,2,0.756411998056137,4.9,1.01723257092635,1,7
4,11,2,1.18042358042658,3.5,0.498972581528506,0,6
4,12,2,1.97185061592063,3.5,0.239854734491018,1,8
4,13,2,1.44058544203654,3.5,0.0102858190930419,0,8
4,14,1,0.802535815928422,3.5,0.54611167020812,1,10
4,15,1,0.859456339077951,4.8,1.84162938817281,1,10
4,16,2,0.98506453488335,4.8,0.781652786963605,1,9
4,17,2,1.28569898503702,3.5,0.310543862811755,0,8
4,18,2,0.603008924597816,2.2,1.3704937733819,0,10
4,19,2,0.697253225376699,3.5,0.428203381294225,1,12
4,20,1,1.02992260057181,4.8,1.29985426227177,1,12
4,21,1,1.5972225311416,4.2,0.922947549815945,1,11
4,22,1,0.575664708097975,4.2,0.957806891865403,1,10
4,23,2,1.35091242630551,4.8,0.828740205304712,1,9
4,24,2,0.947021136589683,3.5,0.546100035826385,0,8
4,25,2,1.07825934608627,4.7,0.546096613950795,1,10
4,1,1,1.28707355289771,4.1,1.134956078502,1,10
4,2,2,1.03527783756545,3.8,0.663875898113474,1,10
4,3,2,0.80120573246495,3.5,0.310546258127943,1,10
4,4,2,0.721907504621413,3.5,0.0102865034677961,1,9
4,5,2,1.31877689808971,4.6,0.758059631676588,1,8
4,6,2,1.52094650477557,3.5,0.0102899253452051,0,7
4,7,2,0.969649664844837,4.5,1.04077166056413,1,9
4,8,2,0.898367867483103,4.6,1.29986281696438,1,9
4,9,1,0.898068111086104,4.2,0.922981084206185,1,8
4,10,2,0.85213523393395,3.2,0.970112302571579,0,7
4,11,2,0.749600410352286,2.6,2.00655015632947,0,9
4,12,1,1.44450622833028,4.1,0.640300194396332,1,11
4,13,2,1.05499605970908,5.1,0.533848690773084,1,11
4,14,2,0.908057937846024,5,0.522571211820832,1,10
4,15,2,1.00564199025939,5.4,1.11142691230634,1,9
4,16,2,0.707602349186345,4.6,0.781668869783971,1,8
4,17,2,0.591178470373052,4.7,1.04069877459187,1,7
4,18,2,0.498902433057083,4.8,0.663832440281112,1,6
4,19,2,0.620810553615229,4.9,0.640350495983512,1,5
4,20,2,0.741302017229827,3.5,0.593232622941287,0,4
4,21,2,0.934274645980622,4,0.546106879581203,1,6
4,22,2,0.817539376390414,3.5,0.216348152682258,1,6
4,23,2,0.867550103974281,4.6,0.828774424071526,1,5
4,24,2,0.85892218412846,3.5,0.287005799738836,1,4
4,25,2,0.515438309894307,4.3,0.404704327613217,1,3
4,1,2,1.3225933171434,4.8,0.59316076353025,0,4.5
4,2,2,0.744878220542887,4.7,1.48833088726133,0,4.5
4,3,1,0.00131400064310583,3.5,0.899319833573827,0,4.5
4,4,2,0.659596499146573,4.6,0.593167265096781,1,6.5
4,5,2,0.751270628354177,2.2,1.25275726267682,0,6.5
4,6,2,0.580260630658813,5,0.522488060216347,1,8.5
4,7,1,0.862706779731525,3.5,0.710961263330319,1,8.5
4,8,2,2.67496448947531,3.5,0.334077135259577,1,7.5
4,9,2,0.615075830497517,5.5,0.498941100264346,1,6.5
4,10,2,0.6405195366915,4.6,0.47538045280271,0,5.5
4,11,2,0.522338866392602,3.5,0.0513914548209868,1,7.5
4,12,1,0.719643933200132,3.5,0.404800482348946,1,7.5
4,13,2,0.628085121234108,4.7,0.522514066478834,0,6.5
4,14,2,0.650700988546305,4.9,1.13481509718258,1,8.5
4,15,1,0.941281622846873,4.6,0.828745680308202,1,8.5
4,16,2,1.98176276608137,3.5,0.0102875300308369,0,7.5
4,17,2,0.865453177948439,4.1,0.616768975076411,1,9.5
4,18,2,0.601096095535468,3.5,0.310496983103803,1,9.5
4,19,1,0.667193065362881,3.5,0.121981348718691,1,8.5
4,20,1,0.798412796722914,4.2,0.6874399674507,1,7.5
4,21,2,0.664910673620398,3.5,0.0102830815922061,1,6.5
4,22,1,0.850354831502045,3.5,0.0102854769047553,0,5.5
4,23,2,0.517143431041404,4.5,0.357581321753969,1,7.5
4,24,1,0.912497480643651,3.5,0.0102892409704509,1,7.5
4,25,2,0.503902137063051,4.5,0.357593640510458,1,6.5
4,1,1,0.815157065850144,3.5,0.0750044569940655,1,7
4,2,1,1.20258194282542,4.7,0.428308775095502,1,7
4,3,2,0.608274850610542,4.8,0.840399565695407,1,7
4,4,2,0.492334140781168,4,0.451823911595056,0,6
4,5,2,0.486361939423659,4.1,0.357600142075171,1,8
4,6,2,0.585912544360326,5,0.52250208991245,0,8
4,7,2,0.684323664365365,4.7,0.546013804534596,1,10
4,8,2,0.71551680774428,4.5,0.404786452652843,1,10
4,9,2,0.431648868916454,3.5,0.463491142301791,0,9
4,10,2,0.565165363899723,3,0.92289108885052,1,11
4,11,1,1.05536322707485,3.5,0.310512381547596,1,11
4,12,2,0.744260571802442,3.5,0.263456444472467,1,10
4,13,1,0.825772753854835,4.1,0.663899509063413,1,9
4,14,2,0.593197377611432,3.5,0.0102906097217783,1,8
4,15,1,0.785984198457299,4.5,0.47543520283034,0,7
4,16,1,0.740327808940492,3.9,0.663895744997717,1,9
4,17,2,0.850593678494988,3.5,0.0102858190930419,1,9
4,18,1,0.52963225433632,4.2,0.569607986386472,1,8
4,19,2,0.840870073738188,4.2,0.616739889122982,1,7
4,20,2,0.631288339989624,4.7,0.805181610970976,1,6
4,21,2,0.522789869739427,4.8,0.734480163895569,0,5
4,22,2,0.612740057480551,3.5,0.334068580568783,1,7
4,23,2,0.752031995916695,4.4,0.499017065925727,0,7
4,24,2,0.794526913572554,4.2,1.18210372187241,1,9
4,25,1,1.42692325722965,3.5,0.0102861612813285,1,9
4,1,2,0.772885596737979,3.5,0.381229911445189,1,9
4,2,1,0.593725715369146,4.8,0.40464136508308,1,9
4,3,1,1.01803671194648,4.1,0.498978398718464,1,9
4,4,2,0.573659830553879,5,0.475330151217349,1,8
4,5,1,0.931676072836126,4.3,0.510753418540844,1,7
4,6,2,0.682025189802516,3.5,0.192648577030923,0,6
4,7,2,0.938448651146246,3.5,0.35772196088692,1,8
4,8,2,0.890021910276118,4.6,1.04073675742256,0,8
4,9,2,0.648950014250659,4.8,0.451834177225464,1,10
4,10,1,0.782002844947783,4.7,0.522566079003809,1,10
4,11,2,0.901565611233309,4.6,0.663869738735229,0,9
4,12,2,0.437656999978572,4.4,0.569595667629983,1,11
4,13,2,0.676859866964151,2.9,1.41751138543805,0,11
4,14,2,0.772941715516936,4.1,0.404798087032759,1,13
4,15,1,0.722496409596715,4,0.428353601679191,1,13
4,16,2,0.610760844012475,4,0.321689941702061,1,12
4,17,1,0.973609118344029,4.5,0.875845417405799,1,11
4,18,2,0.538929835445742,3.5,0.0102830815903872,0,10
4,19,2,0.724524213712357,4,0.663867685610967,1,12
4,20,2,0.697279573825654,3.1,1.62953531256971,0,12
4,21,1,0.892680366263448,4.1,0.663878977804416,1,14
4,22,1,0.789069020278475,4.6,0.451892691316971,1,14
4,23,2,1.37626374182946,2.8,0.734510960783155,0,13
4,24,2,0.630876003850062,3.5,0.263394508503552,1,15
4,25,1,0.99228743216554,4.1,0.522655389986539,1,15
4,1,1,0.849744710891173,5,0.616799771965816,1,15
4,2,2,0.516426547877927,3.5,0.192708117683651,1,15
4,3,1,0.576729938307835,4.3,0.451835203788505,1,15
4,4,1,0.549599246913203,4,0.663834151218907,1,14
4,5,1,0.487119885106949,3.5,0.451823911595056,1,13
4,6,1,0.928806829244422,3.5,0.0102875300308369,1,12
4,7,2,1.64919467843356,3.5,0.0285110764434648,1,11
4,8,2,0.979417411808754,3.5,0.0102923206577543,1,10
4,9,1,0.757375940716884,4.1,0.616787795397613,1,9
4,10,2,1.04277208966778,4.6,0.416430072409639,1,8
4,11,1,0.881069254335671,3.5,0.64031935690582,1,7
4,12,1,0.680503823434265,4.2,0.451728099049433,1,6
4,13,1,1.10988090842693,4.3,0.498993112789321,0,5
4,14,1,1.11536241266913,3.5,0.710987611781093,1,7
4,15,2,1.46022769851697,3.5,0.0102827394039195,1,7
4,16,1,0.907386565644629,4.5,0.404786110464556,1,6
4,17,1,0.707571210108654,3.5,0.546127068651913,1,5
4,18,1,0.770265465769626,4.3,0.357634018655517,1,4
4,19,1,0.919158163587781,3.5,0.310561656571736,1,3
4,20,2,0.817042862085145,4.6,0.569708931749119,1,2
4,21,1,0.634179825778119,2.9,1.93573441857006,0,1
4,22,2,0.887215971404657,4.8,0.710997193034927,0,3
4,23,2,0.62869626840984,4.2,0.334072344632659,1,5
4,24,2,0.579726817897608,4.8,0.66383825747107,1,5
4,25,2,0.660618613708721,4.4,0.475386269992669,1,4
5,1,1,0.774149483882866,6,1.48828669019531,1,13
5,2,1,1.1400283054827,4.5,1.08782912138668,1,13
5,3,1,1.25281737420119,4.4,1.27628745121365,1,13
5,4,1,0.864073457381892,4.6,1.70031227736581,1,12
5,5,1,1.87562696713212,3.5,1.11137413675351,1,11
5,6,2,2.27069752895113,2.9,1.84160187407542,0,10
5,7,2,1.12737364674649,6,2.26561061756729,1,12
5,8,2,1.00657986135957,6,1.41762290061342,1,12
5,9,1,1.06684193345063,4.4,1.08733706040402,1,11
5,10,1,1.17854148744846,5.1,1.39405906511274,1,10
5,11,2,1.10986510411567,6,1.44118742048522,1,9
5,12,2,1.48562347000916,3.5,0.451869386894032,1,8
5,13,2,1.29255078527785,4.5,1.06426631243812,0,7
5,14,2,1.50805775522895,2.7,1.53538082714113,0,9
5,15,2,1.02866717173129,3.1,1.20563905992458,1,11
5,16,1,1.28614988629124,3.5,0.122108457358991,1,11
5,17,2,0.963392100060446,4.4,1.15852815594735,1,10
5,18,1,1.96262115889658,2.3,2.31270475451493,1,9
5,19,1,1.35092160489876,4,1.0878438353102,1,8
5,20,1,2.01545612136943,3.5,0.145626782352338,1,7
5,21,2,0.847154156066608,4.5,1.11143059715869,0,6
5,22,2,0.911406096765859,5.2,1.51187379422663,1,8
5,23,1,1.18408418828039,4.4,1.46475365127844,0,8
5,24,1,0.865080847877834,4.8,1.06432414158007,1,10
5,25,1,1.76442939746266,4.4,1.01716293651589,1,10
5,1,2,0.793584523964455,4.5,1.45241209115011,1,10
5,2,1,0.7357762552856,4.5,1.44116141447921,1,10
5,3,2,0.682979959636214,4.6,0.89927874399109,1,10
5,4,1,1.15306621060336,3.9,1.04073943283584,0,9
5,5,2,0.713185934037028,4.9,1.44120452969764,1,11
5,6,1,0.636302260947559,4.9,2.31266471895287,1,11
5,7,1,0.729184417474244,4.4,2.10073460119565,1,10
5,8,1,0.657573461830907,4.5,1.58246640948164,1,9
5,9,2,0.84442934271101,3.5,1.04074080157443,0,8
5,10,1,1.14348094478555,4,0.781624157114493,1,10
5,11,1,1.93902857991452,2.9,1.62960537256549,1,10
5,12,1,1.06919308158285,4.2,0.805215367359779,1,9
5,13,1,0.626844629863626,4,0.970122180317048,1,8
5,14,1,0.766307304744259,3.9,0.875871628886671,1,7
5,15,1,0.815635220616969,2.9,1.98295990763836,0,6
5,16,1,1.24778247482755,3,0.899395771011768,1,8
5,17,1,1.4279476266438,4,1.20563324279101,1,8
5,18,1,1.1729313763135,3.9,1.04043283572901,0,7
5,19,2,5.30862557580986,2.7,2.45402720091079,0,9
5,20,1,0.578766713135337,2.5,1.37050789042769,1,11
5,21,2,0.605134406559955,3.5,0.687370183841267,1,11
5,22,1,0.518047140672934,4.4,1.08774357531911,1,10
5,23,2,0.835097293254876,4.5,1.44120076567197,1,9
5,24,1,0.661411742805285,4.3,1.18205024497001,0,8
5,25,1,0.776602602927596,2.6,1.01722452968534,1,10
5,1,2,0.972741600917288,4.5,1.74738862072991,1,10
5,2,2,1.02289007467152,4.4,0.71096242063868,1,10
5,3,1,1.1627428396223,4.2,1.01723103118456,1,10
5,4,2,0.567272059079187,3.9,0.946499146935821,1,9
5,5,2,0.641588323578617,3.5,1.22915225215365,1,8
5,6,2,0.661735449128173,4.3,1.06419753339833,1,7
5,7,1,0.750414898429881,4.3,1.46477555107049,1,6
5,8,1,1.33515409584288,3.5,0.522479453546111,0,5
5,9,2,0.645152514951405,4.4,1.55892413158836,1,7
5,10,1,1.17146374797267,4.4,0.946522415464642,1,7
5,11,1,0.63007792904682,3.5,0.404715025515543,1,6
5,12,1,1.09898159117074,4.6,1.06429642465264,1,5
5,13,1,0.654596800850413,5.1,0.899427936334178,1,4
5,14,1,0.832461447807873,4.6,2.76024687910831,1,3
5,15,2,1.02353817168114,4.6,1.08785307428479,0,2
5,16,2,0.721955090368283,4.5,1.12314219604195,1,4
5,17,1,0.672043750311786,2.4,1.70016650686739,0,4
5,18,1,0.761199520120499,3.1,1.06372839876349,1,6
5,19,2,1.19807165475504,4.5,0.875821669982543,0,6
5,20,1,1.0687263422351,4.3,1.37051370755944,0,8
5,21,1,1.27370532869827,2.7,0.899403299068581,1,10
5,22,2,0.773372041217954,4.3,0.805220842306881,1,10
5,23,1,0.642337022763968,5.2,0.946512492120746,1,9
5,24,1,0.729091343353502,4.1,0.805225290703675,1,8
5,25,1,0.616893911241277,5,0.687390372713708,1,7
5,1,2,1.03398574186576,3.2,1.53542257362278,0,8.5
5,2,2,0.873436303423659,2.7,0.828769963885861,1,8.5
5,3,1,1.13284038267193,3,0.946507017173644,1,8.5
5,4,2,0.76749879037925,2.9,0.663876496115336,1,7.5
5,5,1,0.641111318702315,2.5,0.734502303241243,0,6.5
5,6,2,3.23530917375501,4.4,1.62960366164589,1,8.5
5,7,2,1.10226758673161,2.8,0.722214808229182,1,8.5
5,8,2,0.551724232327615,4.5,1.13491401935789,1,7.5
5,9,2,0.509593136057447,4.9,1.25271300799977,1,6.5
5,10,1,0.549779599110479,4.6,2.28911901921856,0,5.5
5,11,2,0.617709336360349,4.7,1.55893131745688,1,7.5
5,12,1,0.591840889788728,5,2.0771153318401,1,7.5
5,13,2,0.831699061251129,5,1.86515920807506,1,6.5
5,14,1,0.621345044248301,4.7,0.875830224589663,1,5.5
5,15,2,0.59881323650734,4.4,1.39401184368216,0,4.5
5,16,2,1.47727896435754,3.5,0.145647313407608,1,6.5
5,17,2,0.751146830587459,4.8,1.0407681763154,1,6.5
5,18,2,0.99533226434869,3.5,0.593167880393594,1,5.5
5,19,2,0.957136971574073,2.8,1.70025684351458,0,4.5
5,20,2,0.722657936861651,4.5,1.27632851332601,1,6.5
5,21,2,0.739067383610745,4.6,1.04078083713466,0,6.5
5,22,2,0.523889937112472,4.6,1.04071171591022,1,8.5
5,23,2,0.660384505623369,2.8,0.734412308778701,1,8.5
5,24,1,0.814576160295474,4.8,1.11142580657906,1,7.5
5,25,2,0.533577173844606,4.5,1.41759244621426,1,6.5
5,1,1,0.74434865566036,4.1,1.8416521751642,1,7.5
5,2,2,0.816544062043249,3.5,2.666062711427,1,7.5
5,3,1,0.640999766630557,3.5,0.616708105182624,1,7.5
5,4,2,0.877266029792736,3.5,1.34696766564048,1,6.5
5,5,2,3.66590770195216,2.7,1.62960195072264,0,5.5
5,6,1,0.69298713866192,2.8,0.969941507020849,1,7.5
5,7,1,1.33975407900834,3.5,0.0102874279455136,0,7.5
5,8,1,1.05217317809002,4.6,1.39408917732726,1,9.5
5,9,2,1.91784155636378,4.6,1.67672277804377,1,9.5
5,10,2,1.25258708418733,4.7,1.15850522960136,1,8.5
5,11,1,0.717267508029181,2.2,0.946569979079868,1,7.5
5,12,2,1.46036000522872,4.7,1.27626144520764,1,6.5
5,13,2,1.15118043308212,4.7,1.13497390160592,1,5.5
5,14,1,0.901950176599712,4.4,1.34692557697417,1,4.5
5,15,1,0.771538960074395,2.9,1.58253313541536,0,3.5
5,16,1,0.66286705251332,4.7,0.922850791917881,1,5.5
5,17,1,0.609017855858838,4.6,0.946481353354102,0,5.5
5,18,1,0.667434870356374,4.9,0.852359805392553,1,7.5
5,19,1,0.712802687652584,4.5,0.852352619524027,1,7.5
5,20,2,1.18520552613882,3.3,4.10289720579203,1,6.5
5,21,1,0.772194242954356,4.7,1.04072471891232,1,5.5
5,22,1,0.525610781816795,4.5,1.08771483184137,0,4.5
5,23,1,0.558521722883597,4.2,1.88868095491307,1,6.5
5,24,2,0.61870817225099,3.5,5.04504616407939,0,6.5
5,25,1,0.662893742886808,4.5,1.15848196107254,1,8.5
5,1,1,0.593615115238208,5.3,0.993568304429573,1,8.5
5,2,1,1.35718973638723,3.2,2.0300099028118,0,8.5
5,3,2,0.660163454584108,4.6,0.746159837010055,1,8.5
5,4,1,0.538858788078869,4.5,0.781605336978828,1,8.5
5,5,1,0.726559521928721,3.5,0.263440484915918,0,7.5
5,6,2,0.640032753879495,4.5,2.00646796710316,1,9.5
5,7,2,0.65470835292399,5.4,0.946491618880827,1,9.5
5,8,1,0.709549541781598,4.2,1.34697519369365,1,8.5
5,9,1,0.56255641763164,4.1,0.805156169479233,1,7.5
5,10,2,0.810753277612093,3.1,0.663900106830624,1,6.5
5,11,1,0.721878441090666,3,1.25279752751339,1,5.5
5,12,1,0.753747088867385,2.5,1.34697587806113,1,4.5
5,13,1,1.28886785596296,3.5,0.498982001792683,1,3.5
5,14,2,0.714119070546076,4.1,1.91228037757901,1,2.5
5,15,1,0.978700740008208,3.9,0.663875811747857,0,1.5
5,16,1,0.788377163717087,3,2.26563046425508,1,3.5
5,17,1,0.609290918910119,3,1.29981090897127,0,3.5
5,18,1,1.26315578760114,4.1,1.27636478485874,0,5.5
5,19,1,0.561529180447906,4,1.06426152185668,0,7.5
5,20,1,0.582196426090377,4.4,1.53535926953191,1,9.5
5,21,2,0.595813306998025,4.2,1.18204887623324,1,9.5
5,22,1,0.586632502989232,4,1.39401902955069,1,8.5
5,23,1,0.521949067924652,2.5,0.852264678165739,1,7.5
5,24,2,1.12300121612316,3.5,2.73671110271789,0,6.5
5,25,2,0.622596412129496,3.1,1.45235734166636,1,8.5
5,1,1,0.682109100664093,4.2,1.60593340683408,1,8.5
5,2,2,0.709467075370412,3.5,0.852341669626185,1,8.5
5,3,2,0.701199561182875,3.5,0.451746200556954,1,8.5
5,4,1,0.478223735133724,5.1,1.0641978755848,1,7.5
5,5,1,0.64729561504646,4.6,0.734498881400214,1,6.5
5,6,2,0.605807825206284,4.7,1.15848504073074,1,5.5
5,7,2,1.06490653920991,4.4,1.11140972391877,1,4.5
5,8,1,0.480411319182167,4.5,0.805152405451736,1,3.5
5,9,2,0.728332378639607,3.5,0.334144994427334,1,2.5
5,10,1,0.523583340005644,2.9,1.064208825479,1,1.5
5,11,1,0.680075499538361,3,1.12248314913631,0,0.5
5,12,1,0.506140496756416,3.5,0.239844826277476,1,2.5
5,13,2,0.618798166713532,2.7,1.25270547994478,1,2.5
5,14,1,0.575407490139696,2.3,0.781588912133884,0,1.5
5,15,1,0.558711635154395,2.6,1.29981159334056,0,3.5
5,16,1,0.611528461860871,4.5,0.710948733267287,1,5.5
5,17,2,0.557517069863025,3.5,0.56960780891859,1,5.5
5,18,1,0.664904075483719,4.3,0.758037395266001,0,4.5
5,19,2,0.651998937861208,3.5,1.0643128494994,1,6.5
5,20,1,0.713506902884546,4.1,1.44121992799228,0,6.5
5,21,1,0.48483097123426,4.6,0.64027365160473,1,8.5
5,22,1,0.48953053002333,4.5,0.852232170658681,1,8.5
5,23,1,0.629257371161657,4.1,2.02995891735554,0,7.5
5,24,1,0.512704959824987,4.3,0.828706317612159,1,9.5
5,25,1,0.520754844816111,4.8,0.922923677166182,1,9.5
5,1,1,0.535572108150518,3.5,1.11135189477682,1,9.5
5,2,1,0.625422512030127,4.3,1.04075791078685,1,9.5
5,3,1,0.757824214464563,4.3,0.993644611522541,1,9.5
5,4,2,0.665350625957217,3.5,0.922933258327248,1,8.5
5,5,2,0.467672483115166,3.5,0.616711184840824,1,7.5
5,6,1,0.720581220515669,3.5,0.287036827925476,0,6.5
5,7,2,0.642237789325009,3.9,0.75804937171597,1,8.5
5,8,2,1.56532092436282,2.5,1.79447283433365,1,8.5
5,9,1,0.556075105341733,4.2,1.67669814077635,1,7.5
5,10,1,0.836326076974728,4.7,1.53541162372494,0,6.5
5,11,1,0.516048442343163,3.5,0.569598912126821,1,8.5
5,12,2,0.5719972816878,4.8,0.522487323783935,1,8.5
5,13,1,0.646200967559707,4.9,0.910577326458224,0,7.5
5,14,1,0.819571708478179,4.4,1.62961563809586,1,9.5
5,15,1,0.845250242779002,4.6,1.4647618636991,1,9.5
5,16,1,0.827745464175678,4.6,0.923061919613247,0,8.5
5,17,1,0.543915245061726,4.1,1.48825897326969,1,10.5
5,18,1,0.448286375385578,4.5,0.852269468745362,1,10.5
5,19,1,0.560729153619832,4.3,0.71098260951112,0,9.5
5,20,2,0.670759532738884,4.4,0.899297906311403,1,11.5
5,21,2,0.771807916911712,4.3,0.970100622706013,1,11.5
5,22,1,0.695920342239333,2.7,0.569534923668471,1,10.5
5,23,2,0.763473676792273,4.4,0.640343799381299,1,9.5
5,24,2,0.593006369417708,4.5,0.475385316598476,1,8.5
5,25,2,0.674502686488267,3.5,0.428213161638269,1,7.5
6,1,1,1.73365070098771,6,6.4134742553415,1,13
6,2,1,1.68087749236656,5.6,3.66262657094194,1,13
6,3,2,1.50898122861145,5.1,4.1433588388627,1,13
6,4,2,1.43093232793944,5.7,5.8526355123031,1,12
6,5,1,1.45891472444055,5.5,4.83777806597573,1,11
6,6,2,1.53962208109442,5.6,5.4520175898142,1,10
6,7,2,2.81638209770244,4.8,8.25629137690339,1,9
6,8,1,2.1830029910634,3.5,7.26812696394336,1,8
6,9,1,1.24550562162767,6,3.8762864973105,1,7
6,10,1,1.92308716238404,5,5.69239860893867,1,6
6,11,1,4.26763489807854,3.5,2.247157019312,1,5
6,12,2,1.77481656174496,4.3,8.92398403626066,0,4
6,13,1,2.22977320143764,3.5,5.42529923456095,0,6
6,14,2,2.55935159543515,4.7,11.4878757776642,0,8
6,15,2,1.52371377644158,4.8,5.02473161365924,1,10
6,16,2,1.95875646264176,3.5,4.43716082785977,1,10
6,17,1,1.62843517922011,4.2,6.78739811789637,1,9
6,18,2,1.84177242261649,4.5,4.06325510124952,1,8
6,19,1,1.37376406092153,5.2,4.86448204934641,1,7
6,20,2,1.93210551835728,3.5,2.70116990541646,1,6
6,21,1,1.58059118394885,4.1,3.92970917812272,1,5
6,22,1,1.5715225263848,4.4,3.95642308493552,1,4
6,23,1,1.81326818992602,4.3,4.97130380003,1,3
6,24,1,1.41552703915659,4.6,4.83776437846973,1,2
6,25,2,3.32839613560645,3.5,1.95336529594351,0,1
6,1,1,1.80848406414952,4.1,5.05097227493025,0,2
6,2,2,1.41118638859552,4.1,4.49054347271885,1,2
6,3,1,1.5860682397506,4,5.71901533445634,1,2
6,4,2,2.35252378803125,3.1,14.6660272319787,0,1
6,5,1,1.44659357309865,4.5,2.78131641648724,1,3
6,6,1,1.56714218205525,4.8,5.05138563763103,1,3
6,7,1,2.02296832060529,4.1,5.18487783729142,1,2
6,8,1,1.99851011489955,5,4.97127984689359,0,1
6,9,2,1.33431529787413,4.7,2.19376239788471,1,3
6,10,2,2.47472413685682,4,2.88813406091504,1,3
6,11,1,6.26873879549385,3.5,1.36579930077278,0,2
6,12,2,1.7339124745522,3.5,1.60616149957787,1,4
6,13,1,1.43251768340269,4.4,4.33031957248386,1,4
6,14,2,1.56766093855913,3.9,11.3009218877924,1,3
6,15,1,2.07753938323367,3.5,2.03349880388123,1,2
6,16,1,1.40743258988368,4.9,3.39558810597009,1,1
6,17,2,3.79924807681891,4.2,4.65077934952205,1,0
6,18,2,2.17776991506616,3.7,7.26816084052189,0,-1
6,19,2,2.17923584703385,4.3,3.76948390913822,0,1
6,20,1,1.71324810351143,4,3.84958285612447,1,3
6,21,2,1.59290241184135,4,8.81716160120413,1,3
6,22,1,1.55483985104001,5,2.99495341628426,0,2
6,23,2,1.29922805884053,4.8,3.47572195609609,1,4
6,24,2,3.59305194785338,4.4,2.14032329206384,1,4
6,25,2,1.65074068231479,4.5,3.63567518588388,1,3
6,1,2,1.70287502656356,4.3,3.15519818996472,1,3.5
6,2,2,4.38048804858408,3.5,7.90908073678656,1,3.5
6,3,1,4.38775953651566,3.5,5.45204154295061,0,3.5
6,4,1,1.88202395792541,3.5,2.59437279224585,0,5.5
6,5,2,1.82091574210426,4.4,2.19374528850676,1,7.5
6,6,1,2.18515945774197,4.5,2.51422936086601,1,7.5
6,7,1,2.51116986093257,4.6,4.94460426509249,1,6.5
6,8,1,2.32855799037134,4.1,2.06016925286167,1,5.5
6,9,1,1.36917600867673,5.7,2.40740863675092,1,4.5
6,10,2,4.40802662767601,4.6,2.72788723410486,1,3.5
6,11,1,1.23121654901479,4.9,4.89122572649285,1,2.5
6,12,1,3.30208258836137,3.5,2.11361862431659,0,1.5
6,13,1,1.43981620416162,4.5,1.87327285052379,1,3.5
6,14,1,1.88992164929005,4.3,2.51423004524258,1,3.5
6,15,1,2.74144984230225,4.5,2.43410817168115,1,2.5
6,16,2,1.4266607992904,4.3,3.87631797857102,1,1.5
6,17,2,1.41825324829915,4.5,2.48751168998569,0,0.5
6,18,1,1.52894377275152,3.5,1.41923566909463,1,2.5
6,19,1,2.51339887139693,3.5,1.25897926103426,1,2.5
6,20,1,1.54445958814904,4,1.79311744256847,1,1.5
6,21,1,1.59187140040012,4.1,2.06018259818302,1,0.5
6,22,1,2.06088134540187,3.5,1.20557471616485,1,-0.5
6,23,1,1.40177485899403,4.1,1.28569966941359,1,-1.5
6,24,2,1.60247032120969,4,2.30058072668908,0,-2.5
6,25,1,1.33766942139118,4.7,2.5142208061734,1,-0.5
6,1,1,1.50114034040234,4.9,2.35396302935987,0,-0.5
6,2,1,1.31391304258796,4.8,2.06021887007591,1,-0.5
6,3,2,1.88955208660991,3.5,5.98618588386671,1,-0.5
6,4,2,1.65258096758771,3.5,2.14032705613135,1,-1.5
6,5,2,3.3265599565857,3.7,4.35700097147128,1,-2.5
6,6,1,3.10643063017778,3.5,1.95289957852583,0,-3.5
6,7,2,1.50107566692895,4.1,3.26203841877577,0,-1.5
6,8,1,1.36781341738606,4.6,1.57950063185126,0,0.5
6,9,2,1.98404857969581,4,3.66264641782618,1,2.5
6,10,2,2.96939815691076,3.5,3.79653213330312,0,2.5
6,11,2,3.15391806589832,3.5,3.82288605869326,1,4.5
6,12,2,2.259556531626,3.8,4.83776540503095,0,4.5
6,13,1,2.09361091140818,4.1,3.15518073839121,0,6.5
6,14,1,1.56243847038058,4.2,1.84653019994585,1,8.5
6,15,1,1.37498224901719,4.9,2.35397534811273,1,8.5
6,16,2,1.31587104042046,4.4,2.647768440238,1,7.5
6,17,1,1.54427275368289,4.7,2.11312108344646,1,6.5
6,18,1,3.50013293990924,4.6,3.04839252210149,0,5.5
6,19,1,1.59999561999939,5.1,2.27387161050501,1,7.5
6,20,2,3.5205666764632,3.9,1.980188018435,0,7.5
6,21,2,2.43794204230653,3.5,1.12544599885223,1,9.5
6,22,2,1.66094129667908,4.4,2.27385963393317,1,9.5
6,23,2,1.9399553034491,4.6,2.51421567336001,1,8.5
6,24,2,2.68723978766502,3.9,4.17000225501761,1,7.5
6,25,1,1.29781140189516,4.5,2.43411364668646,1,6.5
6,1,2,1.28294266337616,4.5,2.38069541430741,1,8
6,2,1,1.28561446468302,4.9,2.11363128525772,1,8
6,3,2,3.84512278206967,3.7,16.0014009163096,1,8
6,4,1,1.59817381285757,4,2.59434096879704,1,7
6,5,1,1.31890521846435,4,2.00679002988181,1,6
6,6,1,1.40983851137207,4.5,3.79616770343637,1,5
6,7,2,1.995686040078,4.1,3.42225752838567,1,4
6,8,2,1.76806246156775,3.5,0.991907946041465,1,3
6,9,1,1.73201949237773,4.4,2.75458608466579,1,2
6,10,1,2.12179964706957,3.5,1.33910421427936,1,1
6,11,1,1.4842502993306,4.2,3.10184018261862,1,0
6,12,1,1.44951072296317,4.2,3.26204560471888,1,-1
6,13,1,1.41585314400436,4.6,1.92667807976613,1,-2
6,14,2,2.79407762116898,4.2,3.44900702271843,1,-3
6,15,1,1.34376686343603,4.9,2.43380088715639,1,-4
6,16,2,2.16467747272327,4,2.96824840634508,0,-5
6,17,1,5.13453621423469,4.6,2.11358543211463,1,-3
6,18,1,2.11536241267095,3.5,1.17885533434674,0,-3
6,19,1,1.47226312315615,3.5,1.17885225465943,0,-1
6,20,1,2.24135112116346,3.5,1.4993462504608,0,1
6,21,2,1.68876526028907,3.9,2.51425091868805,1,3
6,22,2,1.4839416460527,4,3.07509616328753,0,3
6,23,1,1.54304669527119,4.9,2.06022160757493,1,5
6,24,1,1.84104869570001,3.5,1.44593486183658,1,5
6,25,2,1.77695489248072,3.5,3.90300724787812,1,4
6,1,1,1.49804217326164,4.4,3.92969514842844,0,4.5
6,2,1,1.67048456853445,5.4,1.65958075851449,1,4.5
6,3,2,1.62780589609611,4.7,4.11666785861962,0,4.5
6,4,2,1.43232982237532,4.5,2.38069096586696,1,6.5
6,5,2,1.95930875353588,4.3,1.79313934258244,1,6.5
6,6,1,2.05934355402132,4.2,6.30665934841454,1,5.5
6,7,2,1.43068424188095,4.4,1.68631451221518,1,4.5
6,8,1,1.84041599070406,4.4,1.71300651901765,0,3.5
6,9,2,1.53380112668674,4.4,3.42228319245987,1,5.5
6,10,1,1.42465386862023,4.4,1.68628029344836,1,5.5
6,11,2,1.67769583143672,4.3,5.26505822494073,1,4.5
6,12,2,1.28821645970311,4.3,3.20862874109662,0,3.5
6,13,1,1.51785552357615,4.5,2.1937699260161,0,5.5
6,14,2,1.6478197683864,4.6,1.95337213969469,1,7.5
6,15,1,1.78605024067656,4.3,2.2738613448746,1,7.5
6,16,2,1.28860210520725,3.5,1.15216914473422,1,6.5
6,17,1,1.3021044883717,5.5,4.27691708074053,1,5.5
6,18,1,2.19235053157172,4.9,1.36581538359314,1,4.5
6,19,2,1.24259394676847,5.2,1.63288943608495,1,3.5
6,20,2,1.45409740645846,5.1,1.60619263865374,1,2.5
6,21,1,1.37654844196732,4.6,1.23228862297765,0,1.5
6,22,2,2.10288453938119,4.1,2.19375384319574,1,3.5
6,23,1,1.51755063436576,4.1,3.10123656357609,1,3.5
6,24,1,1.84018467184069,3.5,0.965197118915967,1,2.5
6,25,1,1.21444866894308,4.2,2.43411193574502,0,1.5
6,1,1,1.54698732844918,4.1,3.26202062501761,1,2.5
6,2,1,1.84859872439483,3.5,0.80494755460677,1,2.5
6,3,2,1.45752030969379,4.2,2.27385073705591,1,2.5
6,4,1,1.86230402484216,4.2,1.92667465789054,0,1.5
6,5,2,2.35191743148607,3.5,3.76948425132287,1,3.5
6,6,1,1.4382038158692,4.4,1.12545215822684,1,3.5
6,7,1,1.39893880760428,4.9,3.075092057039,0,2.5
6,8,1,1.89794697664911,4.7,1.57945375213967,1,4.5
6,9,2,1.92160788509864,3.5,1.17885944059526,1,4.5
6,10,2,1.7378962233779,4.4,3.58252967708177,1,3.5
6,11,1,1.85157130865991,3.5,1.659609502276,0,2.5
6,12,1,1.76594876834861,4.4,2.27378880108881,1,4.5
6,13,1,1.57850349698492,4.6,1.20557060991268,1,4.5
6,14,2,1.69845806815283,3.5,0.644687382478878,0,3.5
6,15,2,1.55618327981938,4.5,1.55278740941139,1,5.5
6,16,2,2.278540076848,3.5,1.47267580148036,1,5.5
6,17,2,2.24535334812026,4.8,2.64776672929656,1,4.5
6,18,1,1.41380036018745,4.6,1.68630801064864,0,3.5
6,19,1,1.29959111995777,4.6,2.0335011991956,1,5.5
6,20,2,1.62219025428931,3.5,1.44593280871413,1,5.5
6,21,1,1.23235534957348,4.3,1.2590127954245,1,4.5
6,22,1,2.16214015117293,3.5,1.65959649914657,0,3.5
6,23,1,1.29697783273878,4.2,2.27386955737893,1,5.5
6,24,2,1.69867877919751,3.5,0.644726049686142,1,5.5
6,25,2,1.42269073797434,4.4,3.50241704258588,1,4.5
6,1,1,1.32157701977121,4.5,3.2086082098358,1,5
6,2,1,1.63152616041771,4.4,1.87325847864122,0,5
6,3,2,1.42314618975797,3.5,1.12546173948431,1,5
6,4,1,1.82653651672808,4.4,2.51422833430115,1,5
6,5,1,1.39284273431258,3.9,4.35704750899095,1,4
6,6,1,1.43739419985286,4,3.68880324311976,1,3
6,7,1,1.25525386389927,4.5,2.72790365911715,1,2
6,8,2,5.97432326400667,2.9,2.03349435544442,1,1
6,9,2,3.10021513338506,3.5,0.591296867307392,0,0
6,10,1,1.1631564485433,4,2.35400032781399,1,2
6,11,1,1.34676990240405,4.2,2.51415647489193,1,2
6,12,1,1.30585246989358,4.5,2.06020552475456,1,1
6,13,1,1.70570526075971,3.5,1.15215956347674,0,0
6,14,2,1.76222508215142,3.5,0.537887874001171,1,2
6,15,1,1.58989526661753,4.2,1.41925072535014,0,2
6,16,2,1.86242242177832,4.2,1.87327182395893,0,4
6,17,2,1.3762596355773,4.3,3.9297355265735,1,6
6,18,1,2.23147900695767,3.5,1.89996246201554,0,6
6,19,2,1.91519563040129,3.5,0.644699016858794,1,8
6,20,1,1.39362326438277,4.5,2.00675854861765,0,8
6,21,2,1.61498343983112,4.2,1.07204556023498,1,10
6,22,1,1.63696797089142,4.2,1.44603991345502,1,10
6,23,1,2.4424151194944,3.5,1.36581846328045,0,9
6,24,1,1.16958615481417,4.8,2.4608248159966,1,11
6,25,1,2.2034072994793,4.7,2.08690813937574,1,11
7,1,2,0.733117254632816,4.6,2.16767599966079,1,9
7,2,2,1.11963521663165,4.6,1.14791239505212,1,9
7,3,2,0.725680880594155,4.7,0.79689240868538,1,9
7,4,2,0.618972061243767,4.9,0.696532498037413,1,8
7,5,1,1.7169311988273,2.7,1.81604726539081,0,7
7,6,1,1.45309082422864,4.4,1.24822474192297,1,9
7,7,1,2.472204276497,2.7,1.01417195229078,1,9
7,8,2,1.08102540658365,3.5,0.546117358657284,1,8
7,9,2,1.14665520573544,4.5,0.663138620691825,1,7
7,10,2,1.51654843018878,4.1,0.913121511419376,0,6
7,11,1,1.63647108259283,2.8,0.813568816231054,1,8
7,12,2,1.49840438928004,4.3,1.11448669446145,0,8
7,13,2,1.3132618758882,4.2,0.612961916129279,1,10
7,14,1,0.662298555431335,4.2,0.830371832389574,1,10
7,15,1,1.36382148596022,3.5,0.328794015313179,1,9
7,16,1,2.15491624669266,3.5,1.08102677532588,1,8
7,17,2,1.03868611740108,4.6,1.09776682936536,1,7
7,18,2,1.21866813213455,3.4,1.63271046457885,0,6
7,19,2,1.63842633021341,4.3,0.646384879235484,1,8
7,20,1,0.643416078335576,2.6,0.980721272164374,1,8
7,21,1,2.24927490904702,4.1,0.729988995317399,1,7
7,22,2,1.42565987040689,4.3,0.84699725430437,1,6
7,23,2,1.42376895365123,4.2,0.579531082756148,0,5
7,24,2,1.76156552577413,4.1,0.897158902705996,0,7
7,25,2,2.06264662646208,4.8,0.679835901548358,1,9
7,1,2,0.665621518262924,3.5,1.03039051571432,1,9
7,2,2,1.46253993304163,4.7,1.39865801713131,0,9
7,3,1,1.32295290980801,4.2,1.06433976003245,1,9
7,4,1,1.72303818241926,4.2,0.746713308824837,1,9
7,5,2,1.16808901748846,4.3,1.11449832876679,1,8
7,6,2,0.732801417469091,5.2,0.88049789350589,1,7
7,7,2,1.00641460830775,4.9,0.863744836422484,1,6
7,8,2,1.39725129277758,4.6,0.713251678760571,1,5
7,9,1,1.66697212420513,4.1,0.929971406983896,0,4
7,10,2,1.33094533519215,4.4,0.679884834067707,1,6
7,11,1,1.35569697699611,3.5,0.445838888143044,1,6
7,12,1,1.42194031464533,4.6,1.36524497740174,1,5
7,13,2,1.39055198618371,4.4,1.08105038612484,1,4
7,14,1,1.07560108295002,4.5,0.763434542663163,1,3
7,15,2,1.26709421597116,4.7,0.663107139629574,0,2
7,16,1,2.1355670286539,4.2,0.897141793437186,1,4
7,17,2,2.18079538952952,3.5,0.729986257832934,0,4
7,18,2,1.33577836238328,4.4,0.947301730910112,1,6
7,19,2,0.781417414225871,4.4,0.780182809154212,1,6
7,20,2,0.69664781452957,2.8,1.53231017604776,1,5
7,21,1,1.36722999515405,3.5,0.395645758679166,1,4
7,22,2,4.8583968201383,2.8,0.88043801105232,1,3
7,23,1,1.55583918926641,4.2,0.913859605418111,0,2
7,24,1,1.64824123526341,4.1,1.44881658586382,1,4
7,25,1,0.795882619444455,4.2,1.24824185119724,1,4
7,1,2,0.832525547564728,4.2,0.980752753224806,1,4
7,2,2,0.753308248858957,2.9,1.0309582013615,1,4
7,3,2,1.53163470198342,4.3,1.31505698072215,1,4
7,4,1,1.11336021998432,4.7,1.34853366694006,1,3
7,5,2,1.11879788885562,4,1.51569228221342,1,2
7,6,2,1.0928037717058,4.2,0.696566032209375,0,1
7,7,2,0.6153770609817,2.6,1.91688212943336,1,3
7,8,1,1.23002663571606,4.1,1.09777469962864,1,3
7,9,2,1.13840340378738,2.9,0.947320551109442,0,2
7,10,1,1.35155276910154,3.5,0.663133487909363,1,4
7,11,2,1.00023850325306,4.1,1.23150795649781,1,4
7,12,1,1.36006360542888,3.5,0.462522823770996,0,3
7,13,1,1.36062650048189,3.5,0.345513538228261,1,5
7,14,1,1.57412934336026,4,0.847009572979005,1,5
7,15,2,1.46149695181157,2.7,1.23148708318331,1,4
7,16,2,1.545537012149,4.1,0.730000971805566,1,3
7,17,1,1.59944456459198,2.8,0.930575364291144,0,2
7,18,2,1.0342883500889,4.1,0.763445834782033,0,4
7,19,1,0.692495394181606,4,1.46561925984133,1,6
7,20,1,0.998980971751735,4.9,0.830297235963371,1,6
7,21,2,0.686651551193791,4.9,0.980732564283244,1,5
7,22,2,0.733453622924571,1.3,1.24826580417721,1,4
7,23,1,1.33511999759139,4,1.28167747516636,0,3
7,24,2,1.00622777505487,5.6,0.696588958635402,1,5
7,25,2,0.787947681215883,2.9,0.847047897750599,1,5
7,1,2,0.719662180843443,2.9,1.04766164155808,0,5
7,2,1,0.735473885775718,4.3,1.81664027276202,1,5
7,3,1,1.11273641592197,4.8,1.56584298068265,1,5
7,4,1,1.30934351038377,4,0.61300503149323,1,4
7,5,1,2.03526289423098,3.5,0.445792008737044,1,3
7,6,1,0.791395541735255,4.3,1.09779420420091,1,2
7,7,1,1.51761878625257,4.7,0.696550976048457,1,1
7,8,1,0.900887013103784,4.7,0.696596486712224,0,0
7,9,1,0.911395185859874,3.5,0.512677970647928,0,2
7,10,2,1.24162056287969,4.5,0.713279737970879,0,4
7,11,2,1.68474044550021,2.5,0.67984890459411,0,6
7,12,2,1.09360037941588,4.4,0.847015047947934,1,8
7,13,2,1.36998253485581,5,0.679834874994413,1,8
7,14,2,1.22444490677299,5,0.713280422340176,1,7
7,15,1,1.37302422125504,2.4,0.913864396014105,1,6
7,16,2,0.938360425294377,3.5,0.830335902919614,1,5
7,17,2,1.27781693900033,3.3,2.10078490497108,1,4
7,18,1,1.5239947276059,4.3,0.796840054310451,1,3
7,19,1,1.42396913213452,4.3,1.16461343994888,1,2
7,20,2,1.00116719454309,3.1,2.45184629577489,0,1
7,21,2,1.00339892800184,4,0.847034210331913,1,3
7,22,1,1.34741643147208,4.1,1.03089660798651,0,3
7,23,2,0.940310540132486,1.5,1.29838125754759,1,5
7,24,1,1.04333333789691,4.2,1.11447779763694,1,5
7,25,1,1.39014752299045,4.2,1.36522684157535,0,4
7,1,2,1.32443388840329,4.4,1.34850115932204,0,5
7,2,1,1.02592054727575,4.3,0.897172932309331,1,5
7,3,2,0.966620152259566,4.9,0.679861907639861,1,5
7,4,1,1.11967798981277,4.8,0.863729780263384,1,4
7,5,2,0.986346458656044,4.7,0.713261602137209,1,3
7,6,1,0.960298960577347,4.8,0.813609878481657,1,2
7,7,2,0.747227613544965,4.4,0.847033525962615,1,1
7,8,1,1.41429452311786,2.8,0.980737697067525,1,0
7,9,2,0.943751556944335,3.5,0.495993692838965,1,-1
7,10,2,0.832589878427825,3.5,0.479263904366235,1,-2
7,11,2,1.09511318125806,4.4,0.930613689059101,0,-3
7,12,2,1.28754835080326,2.4,1.28164873158676,1,-1
7,13,2,0.856421725766268,4.3,1.28167542205483,1,-1
7,14,2,0.899851559956005,2.5,0.796889671200915,1,-2
7,15,1,1.20120093402875,3.5,0.512685498728388,0,-3
7,16,2,0.974501367374614,3.5,0.412379653378594,1,-1
7,17,1,1.25063064776987,4.1,0.729999260882323,1,-1
7,18,1,1.51632566746412,2.6,1.01382326532621,1,-2
7,19,1,1.76767798433502,3.9,1.44879434381073,0,-3
7,20,1,1.67720141582686,3.5,0.64640814784434,0,-1
7,21,1,1.40064816766608,4.4,0.74671467756707,0,1
7,22,2,1.29902935677455,4.8,0.879900437725155,1,3
7,23,1,1.0688104128385,4.4,0.579563590374164,1,3
7,24,2,0.990162510708615,4.6,0.679851642078575,1,2
7,25,1,1.07701088697286,4.5,0.696542079225765,1,1
7,1,2,0.749839857213374,6,1.98378417405911,1,2
7,2,1,1.19945236641797,4.5,1.73300570217907,0,2
7,3,1,1.02400191350171,4.7,0.612989290966652,1,2
7,4,1,1.3136995310706,4.9,0.462510162906256,1,2
7,5,2,0.997251908709586,5.8,0.763443439485854,1,1
7,6,2,0.96939630275665,4.8,0.763465681535308,0,0
7,7,1,1.34995236778559,4.4,0.763428383321298,1,2
7,8,1,1.40269785846613,4.2,0.897144530921651,1,2
7,9,1,1.42357767199064,4.1,0.612973550436436,1,1
7,10,2,1.27106767333316,4.1,0.612970128579036,0,0
7,11,2,0.676641600439325,3.1,1.84990959460629,1,2
7,12,2,0.814299039964681,4,1.08059425292959,1,2
7,13,2,1.13213011806511,4.2,0.562076545513264,0,1
7,14,1,1.22773330887867,3.5,0.261904289363883,1,3
7,15,2,1.3229943142469,2.9,0.94732260422461,0,3
7,16,1,1.57629743032521,3.5,0.713262970883079,0,5
7,17,1,2.23780245771195,4.5,1.14790555134459,1,7
7,18,2,2.69112323055742,4.2,1.28164428317541,1,7
7,19,2,1.90381954234545,4.7,1.24819223430677,1,6
7,20,1,1.37475328429719,4.5,0.596264977455576,0,5
7,21,1,1.22570278045896,4.4,0.61298450036702,0,7
7,22,1,1.21820173337255,3.5,0.629704023282102,0,9
7,23,1,0.657590768110822,4.6,0.629580152148264,1,11
7,24,2,0.743276398236048,4.7,1.2315387531853,1,11
7,25,2,0.602640234439605,4.5,0.779957308946905,1,10
7,1,2,0.672494997248577,4.6,0.562700349579245,1,10.5
7,2,2,0.841426133112691,5.6,0.67988243876971,1,10.5
7,3,2,0.59882520894098,4.7,0.596264635270927,1,10.5
7,4,2,0.661186452744005,4.6,0.562723960370931,1,9.5
7,5,1,1.30953958264217,2.9,0.880448618805531,0,8.5
7,6,2,1.07083820377375,1,0.964027755344432,1,10.5
7,7,1,1.17434622049404,5.2,0.746726996239886,1,10.5
7,8,2,1.49086809709479,4.2,0.947309943359869,1,9.5
7,9,2,1.35340467671631,4.5,0.629698206128523,0,8.5
7,10,2,0.755215248329478,4.6,0.796905069546483,1,10.5
7,11,1,1.59920777226216,4.3,0.679841376517288,0,10.5
7,12,1,1.01269028932438,4.6,0.696563636909559,1,12.5
7,13,1,1.05076526352059,4.8,0.54612557110886,1,12.5
7,14,1,0.821521890287841,4.7,0.830322557685577,1,11.5
7,15,2,0.88656757888748,5.3,0.663150254997163,1,10.5
7,16,1,0.826758354116464,4.9,0.512715611050226,1,9.5
7,17,1,0.592307602815708,5.1,0.562794108387607,1,8.5
7,18,1,0.617168743960065,5.5,0.579497890768835,1,7.5
7,19,1,0.544283929055382,5,0.278625865386857,1,6.5
7,20,2,0.719702900911216,4.7,0.830350616892247,1,5.5
7,21,2,0.793433256047138,5.8,0.613010164277512,1,4.5
7,22,2,0.972693943866034,2.8,0.629711893543572,1,3.5
7,23,1,1.05452417061315,3.5,0.345514564782206,1,2.5
7,24,1,1.2893982053065,1.7,0.679847535855515,1,1.5
7,25,2,0.964754899410764,5.1,0.579055787176912,1,0.5
7,1,2,0.68324269981531,3.5,0.545953794015077,1,6.5
7,2,2,1.26003595684597,4.6,0.612955756791052,1,6.5
7,3,1,1.06656772944916,3.5,0.345522092859028,1,6.5
7,4,2,1.18209021924486,4.4,0.712787675300206,1,5.5
7,5,1,0.955437874177733,4.1,1.71631252754742,1,4.5
7,6,1,0.68797375574286,5.5,0.880328853898391,1,3.5
7,7,1,0.666848253073113,4.9,0.562712326067413,0,2.5
7,8,1,0.602807220933755,4.9,0.846946268673491,1,4.5
7,9,2,0.966831622863538,4.8,0.780149274978612,0,4.5
7,10,1,0.722250129347231,4.9,0.579593360507715,1,6.5
7,11,1,0.55340317109949,2.7,0.663099611549114,1,6.5
7,12,2,0.838171607367258,3.5,0.295394320815831,0,5.5
7,13,2,1.55621011828771,5.3,0.612974234802095,1,7.5
7,14,1,1.84592792479452,2.9,1.31507135251013,1,7.5
7,15,2,0.949614562316128,4.6,0.579566327858629,0,6.5
7,16,1,0.627268347299832,4.8,1.41534229494209,1,8.5
7,17,2,1.31082893739222,3.5,0.663132803540066,1,8.5
7,18,2,1.36117536593156,4.6,0.54611427898999,1,7.5
7,19,2,0.734735791775165,4.4,0.746729391539702,1,6.5
7,20,2,1.28612520154638,3.2,1.16464457882466,1,5.5
7,21,1,1.2753169321586,4,0.562811217660055,0,4.5
7,22,1,1.4125281618617,3.5,0.830296209405788,1,6.5
7,23,1,0.651881403999141,4.4,1.1646158352487,1,6.5
7,24,2,0.690058691649028,2.6,0.847091013118188,1,5.5
7,25,2,1.24668182776441,1.7,0.579542717059667,0,4.5
8,1,1,0.864826632328914,4.6,3.58469948907805,0,9
8,2,1,0.900240318398573,6,4.15004244838201,1,9
8,3,1,4.23801513359285,3.5,1.29984365445489,1,9
8,4,2,1.16612184686892,5.8,3.79670185838768,1,8
8,5,2,1.35843918623868,6,4.10291533626878,1,7
8,6,1,2.86867350608372,3.5,1.18164382164832,0,6
8,7,1,0.723924016543606,6,3.89092254821662,1,8
8,8,2,2.10204309990513,3.8,19.3902106267742,1,8
8,9,2,1.3552126987197,5.1,3.67891607265483,1,7
8,10,2,1.63640541436689,3.6,6.64687533042525,1,6
8,11,1,1.42020440238048,4,2.43000191967076,1,5
8,12,1,1.0837127909399,5.3,3.18426805887066,1,4
8,13,1,1.54729837703781,3.6,6.69395864251419,1,3
8,14,2,1.32993084729242,4.4,8.17793245420762,0,2
8,15,1,1.78793227284768,3.5,1.11139029822516,1,4
8,16,1,3.73025619932741,3.5,2.92513310244976,0,4
8,17,1,0.954454137099674,4.9,2.19495150003058,1,6
8,18,1,1.28571575223032,3.5,0.875863895540533,0,6
8,19,1,1.789480329855,6,3.066477824701,1,8
8,20,2,2.43227952078814,3.5,2.50114034040234,1,8
8,21,1,2.2721401409035,4.9,5.25712460387513,0,7
8,22,2,4.80866679236351,3.5,7.9659612239775,1,9
8,23,1,0.916880904660502,4.8,3.25493426061439,1,9
8,24,2,2.11478206238462,5.8,2.38336037186309,1,8
8,25,1,2.10277846120152,4,2.57182878434833,0,7
8,1,1,0.919553732532222,5.1,2.30049312664778,1,8
8,2,2,0.787472714811884,2.5,4.64471065124235,1,8
8,3,2,0.732973853784642,4.7,3.09009595968746,1,8
8,4,2,2.15646462652148,3.7,4.95088511973154,1,7
8,5,2,1.37379246249475,3.5,2.26562420334449,1,6
8,6,2,1.69710300498991,3.1,6.45843087107642,0,5
8,7,1,0.926690740707272,4.2,3.20778422193325,1,7
8,8,1,0.951479499708512,4.9,3.25488909184423,1,7
8,9,2,1.97366865899676,4.5,1.95892002834444,1,6
8,10,1,0.871143416668929,5.7,4.83311507463077,1,5
8,11,1,1.28601619300389,4.2,1.77095257860492,1,4
8,12,2,1.32295432513274,3.9,3.77314839686733,0,3
8,13,1,1.18594238312653,4.7,3.25493870905848,1,5
8,14,1,2.17305285807379,4.3,4.36198972547209,1,5
8,15,1,1.23058350183419,4.4,4.97445911250907,0,4
8,16,1,1.2795645867227,4.1,2.33627637539757,1,6
8,17,2,0.755504516364454,4.2,2.43053641681036,0,6
8,18,1,1.32298820171127,4.2,1.4882918778676,0,8
8,19,2,1.21457390962678,4.5,3.27844905492748,1,10
8,20,1,1.84190587580815,3.6,4.40910930945392,0,10
8,21,2,1.03939024895226,4.6,1.62963352043153,1,12
8,22,2,1.46441949744258,4.1,1.48828332317498,1,12
8,23,2,1.0034807329539,6,1.93584939362336,1,11
8,24,1,0.853638464355754,6,2.73675194781754,1,10
8,25,2,1.20530301915642,5.5,2.00652825631914,1,9
8,1,1,0.637098344395781,2,3.34911423011363,0,10.5
8,2,1,1.38158886630845,3.5,1.13497318788359,1,10.5
8,3,2,2.45219313208872,4.6,2.85448469445691,1,10.5
8,4,2,0.978746723983932,4.4,1.51184910344818,1,9.5
8,5,1,0.7768741361906,3.9,4.22073670951795,1,8.5
8,6,1,1.31450639600007,4.2,1.74738269207955,1,7.5
8,7,1,1.72316983492419,3.9,3.25490791216725,1,6.5
8,8,1,0.904393450116913,5.7,1.18213315001049,1,5.5
8,9,1,0.622666921710334,4.7,1.61730381440066,1,4.5
8,10,1,1.4863393550404,4.3,3.32559259204936,0,3.5
8,11,2,1.14358605147208,5.1,2.92515123839257,0,5.5
8,12,1,0.639627111257141,4.9,3.84376258608972,1,7.5
8,13,1,1.06950652774321,3.5,1.5354066712207,1,7.5
8,14,2,1.25717524765059,4.7,3.93800380717948,0,6.5
8,15,1,0.794745913681254,6,3.65541154397579,1,8.5
8,16,1,1.06610860420551,4.2,2.64251243766557,1,8.5
8,17,1,1.082946290564,3.5,1.01719150840654,1,7.5
8,18,2,1.31380696441192,3.9,11.9467863958525,1,6.5
8,19,2,0.91561446810374,4.5,1.7474217014751,1,5.5
8,20,1,1.07264473084069,6,7.70687691133207,0,4.5
8,21,2,1.01743583039934,5.2,4.1029084925176,1,6.5
8,22,2,1.01282074533447,4.9,1.79452212294564,1,6.5
8,23,1,0.68833992101645,6,2.92504892428042,1,5.5
8,24,2,0.864684282259987,4.8,1.79451972763491,1,4.5
8,25,2,1.29393202031133,5.2,1.98294502447243,0,3.5
8,1,2,1.13075777800987,4.8,4.3620208645516,1,4.5
8,2,1,0.973613566784479,4.4,1.67671785908533,1,4.5
8,3,2,0.859166163932969,4.9,3.0900644784233,1,4.5
8,4,2,0.796991349154268,5.3,6.59979099177144,0,3.5
8,5,2,1.37476803953541,4.2,3.79669125056898,0,5.5
8,6,2,1.54434837715962,6,2.07718008618394,1,7.5
8,7,1,1.48834491695743,3.8,3.44346734657302,1,7.5
8,8,1,1.2763079866927,3.5,0.80519119222663,1,6.5
8,9,1,0.934542236736888,4.7,2.54826882126144,1,5.5
8,10,1,1.26362377424084,4.7,3.13715223895269,1,4.5
8,11,1,1.21384402333206,4.2,2.17138948382126,1,3.5
8,12,2,1.10465159649175,4.9,2.14784560355474,1,2.5
8,13,2,0.94076457727715,5.4,1.84164307567698,0,1.5
8,14,2,0.876605074026884,4.3,2.40696653028135,0,3.5
8,15,2,0.969721182067588,5.4,3.91450885975428,1,5.5
8,16,2,1.33749593224275,3.5,0.804791517028207,1,5.5
8,17,2,1.13290979625162,4.2,1.53540222278389,1,4.5
8,18,1,0.834499565935403,4.7,3.32563297019078,0,3.5
8,19,2,1.46018903131335,4.1,1.86527044973627,1,5.5
8,20,1,1.60170176770771,3.9,4.0793368950508,1,5.5
8,21,1,1.54024965328063,3.5,6.38775543025986,0,4.5
8,22,2,1.67646703552236,3.5,13.5720546282064,1,6.5
8,23,1,0.787481269500859,3.7,4.64470483404875,1,6.5
8,24,1,0.757312978188565,3.9,3.49051370239249,1,5.5
8,25,1,1.2247690489894,4.3,2.31273523263371,1,4.5
8,1,2,4.17041288021937,3.5,3.27843365648732,1,5.5
8,2,1,0.789882400364149,4.7,1.9122928524157,1,5.5
8,3,1,0.659565360067063,5.2,2.05358556214196,1,5.5
8,4,1,1.01103863196113,4.2,1.2998313356984,1,4.5
8,5,1,2.25786988861364,3.5,1.44117263607404,1,3.5
8,6,2,0.723248538088228,4.3,1.91228190241236,1,2.5
8,7,2,1.24401881621452,4.1,1.29983920601444,0,1.5
8,8,2,1.16716449269006,4.6,1.72383094150064,0,3.5
8,9,2,1.46147668350386,4.5,1.3469461290515,1,5.5
8,10,1,0.937280080263008,4.8,4.52688517174101,1,5.5
8,11,1,1.16719289426692,4.7,2.24208306058426,1,4.5
8,12,2,0.967161276130355,4.4,2.83093191731314,0,3.5
8,13,2,0.718039757415681,3.5,0.899474502399244,1,5.5
8,14,2,0.838539091349958,3.5,0.593224752625247,1,5.5
8,15,1,1.25786475580026,4.7,0.993648654704884,1,4.5
8,16,2,0.619133491854882,5,1.5119100128577,0,3.5
8,17,1,0.700542333233898,3.5,0.757978191009897,1,5.5
8,18,2,1.51228128647563,4.1,3.18426018855462,1,5.5
8,19,1,1.38259900430057,4,1.27628163824193,1,4.5
8,20,2,0.964334463806154,3.8,2.85449940853141,1,3.5
8,21,2,1.56764725105313,4.1,0.970075004112005,1,2.5
8,22,1,0.658503893926536,3.9,6.64684145384672,0,1.5
8,23,1,0.640791575886396,3.9,3.63177493085095,0,3.5
8,24,2,0.786732562886755,4.1,8.31932063429122,1,5.5
8,25,2,1.07696245482657,4.1,3.6789345507932,1,5.5
8,1,1,1.08795010082395,4.2,1.77092623015778,0,5.5
8,2,1,0.756878057662107,4.9,1.06439835024503,1,5.5
8,3,2,0.65343712113463,4.4,2.3832967249582,1,5.5
8,4,1,0.655912848906155,5.4,0.946495536332804,1,4.5
8,5,1,0.707525356960105,4.5,1.2527918236301,1,3.5
8,6,1,0.942648662577994,5,1.70032264875044,1,2.5
8,7,2,0.851284555395978,4.7,2.66606521480935,1,1.5
8,8,2,0.756795932622481,4.2,1.13499987852265,0,0.5
8,9,1,1.01924155472443,4.5,1.53541522591331,0,2.5
8,10,1,0.614754174090194,4.7,1.13494581287159,1,4.5
8,11,1,1.31611057178452,4.1,0.78162096350934,1,4.5
8,12,2,1.14678858585103,4.9,1.77095565829586,1,3.5
8,13,2,1.26599821446507,4.2,1.93582852017789,1,2.5
8,14,2,1.30474378184954,4.1,2.26558416738771,1,1.5
8,15,2,1.11601941298795,3.5,0.59319669323304,1,0.5
8,16,2,0.771592127359327,4.1,0.828774766261631,0,-0.5
8,17,1,0.604357144005917,4.1,3.84375745327634,1,1.5
8,18,1,0.913856307870446,4.3,1.69992160480615,1,1.5
8,19,2,1.41881477826246,3.5,0.805167239090224,0,0.5
8,20,1,0.623501175243291,4.7,1.79447387448454,1,2.5
8,21,2,0.997806234863674,4.9,4.00871517770065,1,2.5
8,22,1,0.699609187464375,4.3,1.72374950083395,1,1.5
8,23,1,0.889003559776029,4.2,1.51184876126354,1,0.5
8,24,2,1.26548493296286,4.4,2.43051212148202,1,-0.5
8,25,2,1.1738303084494,3.5,41.5085278299521,0,-1.5
8,1,1,0.809775138219266,3.5,0.781630886955099,0,-0.5
8,2,1,1.19884696443478,4.5,2.4776091210806,1,-0.5
8,3,2,0.76316164979653,4.2,2.61896889959098,1,-0.5
8,4,1,1.87873792975734,3.5,1.91228737741403,0,-1.5
8,5,1,0.664722128214635,5.1,2.54825000093842,0,0.5
8,6,1,1.19356803529081,3.5,0.94652633322039,0,2.5
8,7,2,0.820902396786551,4.1,1.27629977418837,1,4.5
8,8,1,0.691710811730445,4.7,4.85659085955194,1,4.5
8,9,2,0.819568207072734,4.6,1.37012455289005,0,3.5
8,10,2,0.860063037809596,4.1,1.86518798250836,0,5.5
8,11,1,0.642517912667245,4.3,3.32554057952439,1,7.5
8,12,1,0.918182928737224,4.3,1.2998193591302,1,7.5
8,13,1,2.13572086794011,4.2,1.20560859274337,0,6.5
8,14,1,1.7413047547343,5.4,1.01719287715969,1,8.5
8,15,1,1.05281358676802,6,1.67672436064822,1,8.5
8,16,2,1.46364341581284,4.3,3.72602607538283,0,7.5
8,17,1,0.712781017344241,4.3,3.20789406417316,1,9.5
8,18,2,1.04213390966834,4.9,1.62961504229679,1,9.5
8,19,1,0.655720539438335,4.8,3.93791654932284,0,8.5
8,20,1,1.31037995492079,4.5,1.48829290442882,0,10.5
8,21,2,0.657904038940615,5.1,3.14827778657855,1,12.5
8,22,1,0.869856106666703,5.2,1.488343206016,1,12.5
8,23,2,0.937142178634531,4.8,1.58252488645303,0,11.5
8,24,1,0.700499901962758,4.8,1.18196616243222,1,13.5
8,25,1,1.37981085919091,4.5,2.07716845180403,1,13.5
8,1,2,0.535987363695313,2.1,2.43044950114199,0,13.5
8,2,1,0.88284007551556,4.2,1.29983167788669,0,13.5
8,3,1,1.04381268236466,4.7,1.53542001654205,1,13.5
8,4,1,0.627153002031264,4.3,1.27625597416773,1,13.5
8,5,1,0.480171080143919,5.1,0.99352717808506,1,12.5
8,6,1,0.571567352966667,4.6,2.00648685160922,0,11.5
8,7,2,0.734511987346195,4.2,1.3941166989971,1,13.5
8,8,1,2.49691055864241,3.5,3.06647577157491,0,13.5
8,9,2,0.633057450231718,5.7,1.32342209567651,1,15.5
8,10,1,0.594502823561925,4.1,1.11139543104218,1,15.5
8,11,2,0.587804157785285,4.7,1.91225658052645,1,14.5
8,12,1,0.584781271929387,5.1,1.32335571126532,1,13.5
8,13,1,0.818105354792351,5,1.93587300457511,1,12.5
8,14,2,1.16118886945696,5.4,3.8438217845578,1,11.5
8,15,1,0.583144588319556,4.3,5.09218809508457,1,10.5
8,16,1,1.23233447612438,4.2,1.15853896816043,0,9.5
8,17,1,0.584153015377524,2.6,1.01713402087989,1,11.5
8,18,1,1.04439166389784,4.8,0.828755261562037,1,11.5
8,19,1,0.570501780573977,4.7,1.32335844876798,1,10.5
8,20,1,0.548084039925016,2.5,5.79888570008188,0,9.5
8,21,2,0.866642964465427,4.7,1.11107514338437,1,11.5
8,22,2,1.86684622394387,4.4,1.20560722399023,1,11.5
8,23,1,1.11525085948961,4.1,1.04077234493889,0,10.5
8,24,2,0.655141215716867,2.7,1.06425839548683,1,12.5
8,25,1,0.579796281992458,5,1.67670964657736,1,12.5
9,1,1,1.33155876569799,2.5,10.4155879307509,0,3
9,2,2,1.37220409786096,4.8,3.70244887595618,1,3
9,3,1,1.22355856586728,4.1,2.47760061757435,1,3
9,4,2,1.55593480979223,3.8,2.97224851338251,0,2
9,5,1,0.980548877258116,6,3.37268178710656,1,4
9,6,1,4.70229010245748,4.5,2.17137614879903,0,4
9,7,1,1.12733771740022,3.9,1.2527256688154,0,6
9,8,2,1.31138358103999,3.5,1.22917415194752,1,8
9,9,1,0.857397100055096,4.8,2.17138265030007,1,8
9,10,1,0.902332054247381,4.2,1.60606309467403,0,7
9,11,1,0.919822118929005,4.2,1.18208720086841,1,9
9,12,1,0.934950427767035,5.8,3.37269479010865,1,9
9,13,2,1.57559021654015,3,3.56109392205326,1,8
9,14,1,1.42413021890752,3.5,1.27629292616257,0,7
9,15,1,0.801465027740051,6,2.31272665430515,1,9
9,16,1,0.851229912925191,6,1.84163164410711,1,9
9,17,1,0.881501586711238,5.3,1.65320616397003,1,8
9,18,1,0.88857932618339,4,1.84163472376531,0,7
9,19,2,1.2627311369215,4.8,2.1478198413497,1,9
9,20,1,0.970621427168226,6,1.32340656761153,1,9
9,21,1,0.768913380157755,5.4,2.26561951435724,1,8
9,22,1,0.608321510866517,1.8,2.10067403458015,0,7
9,23,1,0.625002651930117,3,1.22913856478408,1,9
9,24,1,1.08860245783944,3.5,0.781631685167667,0,9
9,25,1,0.614916086149606,3.5,0.334048156273639,1,11
9,1,2,0.977906872496533,4.7,1.71162625812576,1,11
9,2,1,1.00725464874267,5.1,1.93592565293875,1,11
9,3,1,0.707436553904699,5.4,1.93588356427063,1,11
9,4,2,0.690578845758864,4.8,1.84150264063283,1,10
9,5,1,0.449700280794787,3,2.59532227256932,0,9
9,6,2,0.827716036328638,4.5,1.29987284432354,1,11
9,7,1,0.770944243809936,4.3,1.77096819670987,1,11
9,8,2,0.809230215418211,3.5,0.381203544209711,1,10
9,9,1,0.839460827086441,3,1.46475946841019,1,9
9,10,1,0.697646661890758,4.1,1.29972262543015,0,8
9,11,1,0.966997011360945,5.1,2.00651553071657,1,10
9,12,2,1.00211812064299,4.5,1.8180448822568,1,10
9,13,1,0.625991222288576,6,1.3233682429709,1,9
9,14,1,3.52727345519088,4.1,1.48827505592999,0,8
9,15,1,0.576616427169938,6,1.48822920323801,1,10
9,16,1,0.672502619418083,5,1.2054748114715,1,10
9,17,1,0.53169344942944,6,1.20558123078081,1,9
9,18,1,0.727033104962175,5.8,1.41765095972369,1,8
9,19,1,0.782649341192155,5.5,1.13497663908129,1,7
9,20,1,0.622045495449129,6,1.15847545957149,1,6
9,21,1,0.648749898202368,4.9,0.922957895592845,1,5
9,22,2,0.602168353292655,4,1.53535858516625,1,4
9,23,1,0.823843879108608,2.9,2.00650800266158,0,3
9,24,1,0.616717001972575,3.9,1.32334463225561,0,5
9,25,1,0.661868900995614,4,3.41976292104664,0,7
9,1,1,0.95700694154948,2.9,1.18204305909967,0,6
9,2,2,0.80039878155003,5.1,1.34696937655826,1,6
9,3,1,0.543847492575878,4.4,1.48821756897087,0,6
9,4,1,0.688536005658534,4.8,1.11121981164979,1,8
9,5,1,0.562407909659669,4.4,1.06425775782918,1,8
9,6,1,1.65837691050183,4.7,1.01708149666229,1,7
9,7,2,1.14442879521448,5.1,1.18208206810596,0,6
9,8,1,0.611116814179695,4.3,0.922907936692354,1,8
9,9,2,1.17321094086219,5.4,1.48831338056698,1,8
9,10,1,0.630461859800562,4.7,0.852265362533217,1,7
9,11,1,0.583340690296609,4.9,0.970032870223804,1,6
9,12,1,0.806257318465214,4.8,0.828758671803371,0,5
9,13,1,0.579786764450546,4,1.11136968835854,1,7
9,14,1,0.621259498177096,5.6,0.94659016795049,1,7
9,15,1,0.876056408393197,4,0.781670009808295,0,6
9,16,1,0.621687228522205,6,0.852259203216818,1,8
9,17,1,0.515054739218613,6,1.38215892269727,1,8
9,18,2,0.75834912513892,4.8,1.06431764007721,1,7
9,19,1,0.44353377803418,5.2,1.25269350349481,1,6
9,20,1,0.611782020409009,4,0.805152747638203,1,5
9,21,1,0.523672650102526,3,1.01717114893836,1,4
9,22,2,0.875401809880714,2.9,0.734511884402309,1,3
9,23,1,0.896882085355173,3.9,0.781658375541156,1,2
9,24,2,0.903133791998698,3,1.18208720087205,0,1
9,25,1,0.613849839963223,3.8,0.640254147099768,1,3
9,1,1,0.629121181824303,4.1,1.53534729308376,0,3
9,2,1,0.591064131491294,5.4,1.79446051569903,1,3
9,3,1,0.713354288698611,4.2,1.18210259916304,0,3
9,4,1,0.707394807421224,3.9,1.06433851331894,1,5
9,5,1,0.624507511289266,3.9,0.546023442359001,1,5
9,6,1,0.602932450772641,2.7,1.53536474447901,1,4
9,7,2,0.744729164569435,2.9,0.852327640070143,1,3
9,8,1,1.33032484921569,2.9,0.875851782198879,1,2
9,9,1,0.634360707390442,5.1,1.92344345507809,1,1
9,10,1,0.55099469545894,4.7,1.46465886623264,0,0
9,11,2,0.755151070934517,2.4,2.05366818117182,0,2
9,12,1,0.571467580437456,5.4,3.11353879445596,1,4
9,13,2,0.683165765694866,1.9,1.29974965798829,1,4
9,14,1,0.564245781381032,1,1.55889915213629,1,3
9,15,1,0.626540428045701,3,1.09950718620894,1,2
9,16,1,0.563831738410954,2.9,0.828510246021324,0,1
9,17,1,1.47225398832961,4.6,0.970065377729043,0,3
9,18,1,0.733616388162773,4.7,0.970114994444884,1,5
9,19,2,0.840762496056414,4.5,1.53542154706884,1,5
9,20,1,0.500044141772378,4.6,1.18203313575941,1,4
9,21,1,0.938845853510429,4.4,1.34694952987047,1,3
9,22,2,0.657209719949606,4.5,1.88869430010163,1,2
9,23,1,1.18185588430424,4.5,1.46473072493245,1,1
9,24,1,0.938098865248321,4.7,1.37051404974409,1,0
9,25,1,0.648627396229131,4.8,1.11136044938394,1,-1
9,1,1,0.693246856524638,4.4,1.95925372347847,0,2
9,2,2,0.762984353281354,4.2,1.46473380458701,1,2
9,3,1,0.667800665341929,3.7,2.73656738532372,0,2
9,4,1,1.39996242816778,2.9,4.76242830383853,1,4
9,5,1,0.903580684658664,3.2,2.61890698131538,1,4
9,6,1,0.98149433240178,4.1,2.05362164411417,0,3
9,7,1,0.601019982877915,4.6,0.993587808930897,1,5
9,8,1,1.24858660786776,4,1.11140903954947,1,5
9,9,2,1.13242052256828,4.1,1.06429539810051,1,4
9,10,1,0.688238989707315,3.9,0.734436261675,0,3
9,11,1,0.658810457971413,4.3,1.5588977833977,1,5
9,12,1,0.543922773118538,4.4,1.44112343202869,1,5
9,13,1,0.596101083974645,3.9,1.06429642465446,1,4
9,14,1,0.672553604876157,4.2,1.18194998498075,1,3
9,15,1,0.707391043393727,6,1.08788352868578,1,2
9,16,2,0.640284943689039,1,3.06643336543129,1,1
9,17,1,0.562907156509027,3.9,1.25268939728267,0,0
9,18,1,0.747333871244336,1,5.02155897785269,1,2
9,19,1,0.595040654912736,3,2.57176083235754,1,2
9,20,1,0.664250161338714,6,1.15846895807044,0,1
9,21,1,0.627086554140988,4.6,0.80519175664449,0,3
9,22,1,0.458863633408328,1.9,1.86511643504127,0,5
9,23,1,0.830917854560539,2.7,1.73563972375996,0,7
9,24,2,0.662399628799903,3.1,2.43035660391615,1,9
9,25,2,1.0731052743613,4.3,1.22919810484746,1,9
9,1,2,0.665998722968652,4.3,1.65305560288834,1,9
9,2,1,0.542128358796617,6,1.06423551585249,1,9
9,3,1,0.53865176659383,6,1.06422114411544,1,9
9,4,1,0.731315541121148,4.8,0.923087925617438,1,8
9,5,1,0.725420390484942,5.4,0.993645295890019,1,7
9,6,1,0.737625076908444,4,1.29987421306214,0,6
9,7,1,0.687224071156379,6,0.922852502841124,1,8
9,8,2,1.02927625973462,4.8,3.20780474417916,1,8
9,9,1,0.567852061420126,6,0.899365658795432,1,7
9,10,2,0.809194286070124,4.9,1.70027018869951,1,6
9,11,2,0.71602948533473,4.5,1.48833185851981,0,5
9,12,2,0.69245675304046,4.4,1.39394785522381,1,7
9,13,2,0.927537005518388,3,1.74740265028595,1,7
9,14,1,0.68454237302285,4.6,1.46461883067605,1,6
9,15,1,1.54448190221592,4.3,2.40690637359512,0,5
9,16,2,0.510076984617626,4.1,2.878012333691,1,7
9,17,1,0.6088419731459,3,1.34694918768946,0,7
9,18,1,2.14676420287287,4,1.18205092933931,0,9
9,19,1,1.34875694719449,5.1,2.59535649099416,1,11
9,20,1,1.04629958506848,4.6,1.20564350832137,0,11
9,21,2,0.920295701962459,4.9,1.29984170555326,1,13
9,22,2,0.788477423706354,4.6,0.946556633894943,1,13
9,23,1,0.588538127198262,6,1.06424783448529,1,12
9,24,1,0.849161751189968,5.2,1.04076714976327,1,11
9,25,1,0.635425584845507,6,0.899380714905419,1,10
9,1,1,0.683096302287595,4.7,0.710844367065874,0,11.5
9,2,2,0.597074598223116,4.8,0.922929152115103,1,11.5
9,3,2,0.846706579039164,4.8,0.899416302068857,1,11.5
9,4,2,0.633753672489547,4.6,0.993499183205131,1,10.5
9,5,2,1.31346406141165,3.8,3.06646553074825,1,9.5
9,6,1,0.519104832255834,5.5,4.0321680590132,1,8.5
9,7,2,1.06843582779038,4.1,1.04075825297332,1,7.5
9,8,1,0.558988120043068,4.8,0.922933258327248,1,6.5
9,9,2,0.68883781218392,4.8,0.875730648964236,1,5.5
9,10,1,0.926273661189043,5,0.82877064825152,1,4.5
9,11,1,0.933861939596682,5.2,0.875884289704118,1,3.5
9,12,1,1.16780990432017,4.8,0.734553973066795,0,2.5
9,13,2,1.29872070988131,4.6,0.781613891584129,1,4.5
9,14,1,0.805427521605452,4.7,0.781664534857555,0,4.5
9,15,1,0.693995555709989,5.6,0.969963064628246,1,6.5
9,16,1,0.689134485946852,5.6,1.04061487776198,1,6.5
9,17,2,0.617125569995551,2.9,1.48825726234645,0,5.5
9,18,1,1.22622247042091,4.7,0.734525571773702,1,7.5
9,19,2,0.862129850716883,2.9,1.86518589844854,1,7.5
9,20,1,0.540686736458156,4.6,2.71311031130972,1,6.5
9,21,2,0.660071749196504,2.9,0.911069387442694,1,5.5
9,22,1,0.774253850086097,4.4,1.91229474931606,1,4.5
9,23,1,0.643211987950053,4.6,0.640274335975846,0,3.5
9,24,2,1.08061861441456,3,1.01718415194046,1,5.5
9,25,1,1.39543533025062,4,0.899836504355335,0,5.5
9,1,1,0.686380586928863,4.6,0.640187763354334,0,6.5
9,2,1,0.515094774778845,3.7,0.922894933690259,1,6.5
9,3,2,0.616306038664334,4.1,0.852270153114659,1,6.5
9,4,1,0.75329403689102,4,0.710981582957174,1,5.5
9,5,2,0.707481380042736,4,1.04077673092252,1,4.5
9,6,1,0.608027574577136,3.9,0.828741562592768,0,3.5
9,7,2,2.04530177573179,4,1.04074182812838,0,5.5
9,8,1,0.898014715294266,6,0.946577849317691,1,7.5
9,9,1,0.939887462438492,5.2,0.899426225412753,1,7.5
9,10,1,0.710123726988968,4.9,0.7345587636446,1,6.5
9,11,2,2.4280112729175,4.6,0.87584254322428,0,5.5
9,12,1,1.12923855102781,4.3,0.687415009982942,1,7.5
9,13,2,1.06285719760854,4.5,0.687417063087196,1,7.5
9,14,1,0.931021125772531,4.5,0.687420827114693,1,6.5
9,15,1,0.564452118494955,5,0.663813534207293,1,5.5
9,16,1,0.628238688586862,5.1,0.651963008509483,1,4.5
9,17,1,0.493964553817932,3,0.828705975425692,1,3.5
9,18,2,0.75385932530844,2.8,0.616758748452412,0,2.5
9,19,1,0.674899278059456,3.2,1.25263293687749,1,4.5
9,20,1,0.663370405578462,4.3,0.663827221578686,1,4.5
9,21,1,0.672812638367759,2.9,0.805082599861635,0,3.5
9,22,1,1.2171059970533,2.9,0.922948656618246,1,5.5
9,23,1,0.712154932825797,5.1,1.4647704183044,1,5.5
9,24,1,0.671708067544387,4.3,0.710934361530235,1,4.5
9,25,1,0.653818673818023,4.4,0.805164724086353,0,3.5
10,1,2,1.85455929136879,3.9,3.02163549964462,0,9
10,2,1,1.39004021731671,4.6,3.44898991333321,1,9
10,3,2,1.63023850822356,5,2.24716796931534,1,9
10,4,2,1.46695887212263,4.2,1.52605365571071,1,8
10,5,2,1.36581161952927,4.4,3.12849454877869,1,7
10,6,1,1.37941323711857,4.2,5.42533242676291,0,6
10,7,1,1.72616260826544,4,2.83472027698008,0,8
10,8,1,1.43618867269834,6,1.39253031697081,1,10
10,9,1,1.43094430450947,6,1.28569077253269,1,10
10,10,2,1.28774903135127,6,2.16704575356925,1,9
10,11,1,1.26044450862173,6,1.39252689509522,1,8
10,12,1,1.07996275629193,6,1.33913535335887,1,7
10,13,1,1.42550899559865,4.4,1.17887175935539,1,6
10,14,2,1.17873830616372,6,1.60618374177284,1,5
10,15,1,1.18688442577331,4.8,2.96827030635905,1,4
10,16,1,2.11642593193756,4.4,1.49932606139191,1,3
10,17,2,2.25967287543244,3,3.07509171484708,1,2
10,18,2,1.51717080605158,4.1,1.71270470949821,0,1
10,19,1,1.17339367698514,3.5,0.671464251823636,0,3
10,20,1,1.21505878955213,4.7,1.33912645648161,0,5
10,21,2,1.08246757002053,4.7,1.52607897759663,1,7
10,22,2,1.11348380237541,3.5,0.377669448764209,1,7
10,23,2,1.7369925057501,4.4,1.39253031697081,1,6
10,24,2,1.59842360985203,3.5,0.751563883186463,1,5
10,25,2,2.08779337887245,3.5,1.0987423576662,1,4
10,1,1,1.35625055391574,4.4,1.9795282806117,1,5.5
10,2,1,1.13509363794219,5,1.20559148335815,1,5.5
10,3,2,1.11236792839554,6,1.8732533458242,1,5.5
10,4,2,1.39493692283577,4.6,1.9266667875745,1,4.5
10,5,2,1.88274289421679,3.5,0.724826365421904,1,3.5
10,6,2,0.98744889855152,3.5,0.911802839680604,1,2.5
10,7,1,1.01361530509894,4.7,2.48753495874553,0,1.5
10,8,1,1.14894642128274,3.9,1.31244403092933,0,3.5
10,9,2,1.31860272456834,4.9,2.67446078922876,1,5.5
10,10,2,1.37007219817315,4.7,1.89995972450924,1,5.5
10,11,1,1.29805367076551,3.5,0.991928819490568,1,4.5
10,12,1,0.880744176050939,4,2.86143863223333,1,3.5
10,13,2,1.49816775613363,3.5,0.644706202801899,1,2.5
10,14,2,1.44448843456848,4.5,1.15215648378944,1,1.5
10,15,2,1.21871882884443,3.5,0.698153863315383,1,0.5
10,16,2,1.38554044948978,3.5,0.404355980568653,1,-0.5
10,17,2,0.670289521563973,4.5,1.01860029503587,0,-1.5
10,18,1,1.87843543586132,3.5,0.698085767970042,0,0.5
10,19,2,2.15111828640511,3.5,0.591266754792741,1,2.5
10,20,2,1.30383458922006,4.6,1.28571164598179,1,2.5
10,21,1,1.13419642188092,4.7,1.3124132340381,0,1.5
10,22,2,1.14865898364224,3.5,0.618053205391334,0,3.5
10,23,1,0.894647945351608,4.7,2.16706149420497,0,5.5
10,24,2,1.05451562822418,4.8,2.83473191136363,1,7.5
10,25,1,1.05363894342008,4.9,1.84659316247416,1,7.5
10,1,2,1.4054194998389,3.5,1.07202810866511,1,7.5
10,2,2,1.05746391716457,4.6,1.68624915436885,1,7.5
10,3,1,0.575373848580057,6,1.57922859265454,1,7.5
10,4,1,1.30229371815585,4.5,1.25899602822756,0,6.5
10,5,2,0.969974058752996,4.7,1.1785025388599,1,8.5
10,6,1,0.941870870006824,4.7,1.49935720046778,0,8.5
10,7,2,1.52372883269709,3.5,0.457750259807653,1,10.5
10,8,1,0.848710277572536,4.9,1.23231257611405,1,10.5
10,9,2,0.805463231419708,4.6,1.20562022712329,1,9.5
10,10,1,0.452310844644671,4.7,0.965169743903971,1,8.5
10,11,2,0.715692007830512,4.7,0.965254264257965,1,7.5
10,12,1,0.472650479594449,4.6,1.84651343274891,1,6.5
10,13,1,1.22088111271296,3.5,0.457789269199566,1,5.5
10,14,1,1.36953872760205,3.5,0.270802529314096,1,4.5
10,15,2,0.806787839879689,3.5,0.484489146321721,1,3.5
10,16,1,0.975045964358287,4.5,1.52608992759997,0,2.5
10,17,2,0.778641877681366,3.5,0.270849751213973,1,4.5
10,18,1,0.708497512125177,4.1,1.0453737425014,1,4.5
10,19,2,0.708623779373738,4.3,0.938564652766217,1,3.5
10,20,1,0.546068896750512,3.5,2.72787149347641,0,2.5
10,21,1,0.932284482507384,4.2,1.01864306849166,1,4.5
10,22,2,0.827649653208937,4.4,0.831700813003408,1,4.5
10,23,1,1.26998983360318,3.5,0.484481960378616,1,3.5
10,24,2,0.618654086934839,3.5,0.324263877337216,0,2.5
10,25,2,0.768828619755368,4.1,1.04535765968467,0,4.5
10,1,2,0.691438772530091,4.5,1.12531459878664,1,4.5
10,2,2,0.551907302731706,3.5,0.484422761914175,1,4.5
10,3,1,0.586948004242004,4.2,0.751525900355773,0,4.5
10,4,2,1.18461674810169,6,1.49934933015174,1,6.5
10,5,1,1.0387503580132,4.6,1.25899260635197,1,6.5
10,6,2,1.6077482237888,6,1.3658061445276,0,5.5
10,7,1,1.45318000132102,3.5,0.377639336249558,0,7.5
10,8,2,1.17306483463835,4.6,1.04534191905259,1,9.5
10,9,1,1.18218139847158,4.5,1.23228520110206,1,9.5
10,10,1,1.3010375472295,3.5,0.270805266813113,1,8.5
10,11,2,0.654849671827833,3,1.31238141058566,0,7.5
10,12,2,0.921362194352696,4.4,1.92670682352764,1,9.5
10,13,1,0.935177337050845,4.4,0.965225178308174,1,9.5
10,14,1,0.584051727826591,4.5,1.01859105596668,1,8.5
10,15,2,0.645553117279633,4.5,1.04528648464839,1,7.5
10,16,2,1.00479268046911,4.5,1.04535321124058,1,6.5
10,17,2,1.00460584600296,4.5,0.885025285955635,1,5.5
10,18,1,0.708488615244278,4.8,1.39256487792591,1,4.5
10,19,2,1.03216358760619,3.5,0.324252242953662,1,3.5
10,20,2,1.06381902652356,3.5,0.324251900769013,1,2.5
10,21,1,0.797608997891075,3.5,0.297547917394695,1,1.5
10,22,2,0.874987552924722,3.5,0.270842223082582,1,0.5
10,23,1,0.894623650026915,2.7,2.22051326096698,0,-0.5
10,24,1,1.12097873885068,4.2,0.804979720247502,1,1.5
10,25,2,0.76828077729806,3.5,0.778304138453677,0,1.5
10,1,2,1.19805377342345,4.4,1.39252518415742,0,2.5
10,2,2,1.17756460246164,3.5,0.618022066315461,1,2.5
10,3,1,1.21678033570788,4.3,1.41924833003941,0,2.5
10,4,2,1.3671752373848,4.4,1.12544155041178,0,4.5
10,5,2,1.30964733112341,4.2,0.911786072480027,0,6.5
10,6,1,1.03057925870598,3.5,0.724840737304476,1,8.5
10,7,1,1.01742488039963,4.9,0.804995118691295,1,8.5
10,8,1,0.987115607760643,4.7,0.804963979615422,1,7.5
10,9,1,1.27476814219335,3.5,0.324233764818928,0,6.5
10,10,1,1.07234565882027,4.5,1.0987632311153,1,8.5
10,11,2,1.17467859167664,3.5,0.270818269946176,1,8.5
10,12,1,1.02538074366021,4.3,0.804972876492684,1,7.5
10,13,2,1.38508260239178,3.5,1.98022531688912,1,6.5
10,14,2,1.35243413486023,3.5,0.244148163154023,1,5.5
10,15,2,0.708574504351418,3.5,0.406926836512866,1,4.5
10,16,1,1.44312036827614,3.5,0.377660894075234,0,3.5
10,17,2,0.999966807798046,4.8,1.20557232085048,1,5.5
10,18,1,0.921435764699709,4.4,0.858401716686785,1,5.5
10,19,1,1.07616721068916,4.7,0.965222098617232,1,4.5
10,20,1,0.939085804584465,4.6,1.0186307497388,1,3.5
10,21,1,1.19114192472989,4.2,0.991924371050118,1,2.5
10,22,1,0.926055640396953,4.6,0.96522894237205,1,1.5
10,23,1,1.02395245233856,4.5,1.49937259891158,1,0.5
10,24,1,0.942530265645473,4.6,1.01863109192345,1,-0.5
10,25,1,1.09350380666729,3.5,0.27082545588928,1,-1.5
10,1,1,1.43261726001583,4.6,1.20552065051015,0,2
10,2,2,1.00122708497656,4.8,1.55277543283955,1,2
10,3,1,0.548957302849885,4.6,1.28566237095583,1,2
10,4,2,0.708653891888389,3.5,1.0453511581145,1,1
10,5,2,0.752965141684399,3.5,0.377681767520698,1,0
10,6,1,0.780086594011664,3.5,0.404365904010774,0,-1
10,7,2,1.30552636504945,3.5,0.484442608798417,0,1
10,8,1,0.958961433054355,4.5,0.858407191692095,0,3
10,9,1,0.680417934330762,4.5,0.991796050675475,1,5
10,10,2,0.853879706664884,4.5,1.63291715328887,1,5
10,11,2,0.988245511438436,4.5,1.0720524039898,0,4
10,12,2,1.07265260115673,4.4,1.47266040303657,1,6
10,13,1,0.988185628597421,4.3,1.3658468648573,1,6
10,14,1,1.48771905571266,3.5,0.270862754343398,0,5
10,15,1,1.0025592215643,3.5,0.190681682317518,1,7
10,16,1,1.07188096796745,3.5,0.377651997194334,1,7
10,17,1,1.05561849907826,3.5,0.43109041864227,1,6
10,18,1,1.29867200387889,4.6,1.01863040755052,1,5
10,19,1,1.08662686111711,3.5,0.244126947520272,0,4
10,20,2,1.83037278266784,4.5,1.07202639772731,1,6
10,21,1,1.02806554810013,4.1,1.1254740582408,1,6
